Timestamp,Sensor,AccX,AccY,AccZ,GyrX,GyrY,GyrZ,MagX,MagY,MagZ,Temp
2026/04/13 15:00:16.00,IMU,15.63,-7.81,-1018.55,2.39,0.51,0.05,83.25,52.50,74.40,25.4
2026/04/13 15:00:16.10,IMU,26.86,-16.60,-1018.55,0.21,1.11,-0.52,81.60,52.20,75.75,25.4
2026/04/13 15:00:16.20,IMU,18.07,-17.58,-1021.00,3.11,-0.13,0.97,82.65,52.65,75.00,25.6
2026/04/13 15:00:16.30,IMU,12.70,0.00,-1020.02,0.69,2.03,1.22,84.15,53.10,73.20,25.4
2026/04/13 15:00:16.40,IMU,23.93,-1.95,-1021.00,0.93,-0.19,0.88,83.70,54.00,74.85,25.2
2026/04/13 15:00:16.50,IMU,-0.49,-13.67,-1021.97,1.70,1.82,1.03,83.85,53.40,74.70,25.4
2026/04/13 15:00:16.60,IMU,8.79,-14.16,-1004.88,0.35,-1.60,1.10,81.75,54.30,74.40,25.4
2026/04/13 15:00:16.70,IMU,17.09,-13.18,-1010.74,0.34,-0.10,-1.82,83.40,54.90,74.25,25.5
2026/04/13 15:00:16.80,IMU,18.07,-4.39,-1010.74,1.04,1.46,2.08,82.20,52.80,73.80,25.2
2026/04/13 15:00:16.90,IMU,2.44,-8.30,-1015.14,2.05,0.35,0.58,82.95,53.55,74.40,25.6
2026/04/13 15:00:17.00,IMU,21.48,-14.16,-1013.67,1.87,0.10,1.15,82.05,53.40,74.70,25.4
2026/04/13 15:00:17.10,IMU,17.09,-23.93,-1016.11,1.54,3.17,0.47,83.85,53.85,73.95,25.5
2026/04/13 15:00:17.20,IMU,20.51,-19.53,-1023.44,0.62,0.58,1.63,83.40,53.40,75.30,25.4
2026/04/13 15:00:17.30,IMU,20.02,-14.65,-1011.72,1.22,-0.19,1.09,82.05,53.10,74.70,25.4
2026/04/13 15:00:17.40,IMU,12.70,-18.07,-1009.28,1.16,0.27,0.31,83.40,53.85,75.00,25.5
2026/04/13 15:00:17.50,IMU,4.39,-21.00,-1028.32,0.47,0.35,-0.71,83.25,53.25,76.20,25.4
2026/04/13 15:00:17.60,IMU,11.23,-7.81,-1009.77,-2.38,1.78,-2.40,84.60,54.15,73.50,25.4
2026/04/13 15:00:17.70,IMU,-2.44,-10.74,-1023.44,0.61,2.34,-0.63,80.85,53.40,74.70,25.4
2026/04/13 15:00:17.80,IMU,-8.79,-16.11,-1031.25,2.34,0.08,0.34,83.25,54.00,74.10,25.4
2026/04/13 15:00:17.90,IMU,22.46,-27.83,-1003.42,1.81,4.71,0.34,83.85,52.20,74.25,25.2
2026/04/13 15:00:18.01,IMU,3.91,-7.32,-1021.48,-0.40,1.09,0.59,83.70,54.00,73.35,25.4
2026/04/13 15:00:18.11,IMU,-2.93,-15.14,-1015.63,0.72,0.97,3.27,82.65,54.15,73.50,25.6
2026/04/13 15:00:18.21,IMU,8.79,-30.76,-1012.70,1.17,0.35,1.11,82.95,53.25,74.85,25.4
2026/04/13 15:00:18.31,IMU,7.81,-14.65,-1025.39,1.68,-1.61,-0.35,82.95,52.80,73.80,25.7
2026/04/13 15:00:18.41,IMU,24.90,-14.16,-1009.77,1.45,1.17,-0.37,84.60,53.10,74.25,25.7
2026/04/13 15:00:18.51,IMU,15.14,-25.88,-1024.41,1.18,1.80,1.10,83.10,53.40,74.25,25.7
2026/04/13 15:00:18.61,IMU,11.72,-16.11,-1017.58,2.09,1.56,-0.28,84.75,51.00,74.10,25.5
2026/04/13 15:00:18.71,IMU,8.79,-10.74,-1029.79,-0.05,2.36,0.37,82.95,54.30,74.85,25.3
2026/04/13 15:00:18.81,IMU,14.16,-12.21,-1010.74,0.32,2.59,0.81,82.20,52.80,74.40,25.4
2026/04/13 15:00:18.91,IMU,12.70,-11.23,-1015.63,1.24,-0.91,-1.49,83.70,52.05,75.15,25.4
2026/04/13 15:00:19.01,IMU,5.86,-16.60,-1015.14,2.77,0.24,-0.37,82.95,53.25,74.85,25.5
2026/04/13 15:00:19.11,IMU,0.49,-19.53,-998.54,1.81,0.85,1.99,83.70,52.50,74.10,25.5
2026/04/13 15:00:19.21,IMU,10.25,-19.04,-1009.28,1.58,2.45,0.92,84.60,53.85,75.30,25.7
2026/04/13 15:00:19.31,IMU,17.09,-15.14,-1020.02,1.96,3.10,2.34,83.85,52.65,75.75,25.6
2026/04/13 15:00:19.41,IMU,4.39,-28.32,-1024.41,-0.52,2.64,-0.05,83.25,52.80,74.10,25.4
2026/04/13 15:00:19.51,IMU,19.04,-13.67,-1036.62,2.04,-0.02,-1.77,83.85,53.40,73.95,25.5
2026/04/13 15:00:19.61,IMU,24.41,-9.28,-1013.18,1.68,1.24,-2.06,84.00,53.25,75.15,25.7
2026/04/13 15:00:19.71,IMU,9.77,-20.02,-1010.74,-1.11,-0.44,-0.30,83.25,51.75,74.85,25.4
2026/04/13 15:00:19.81,IMU,13.67,-14.65,-1005.37,2.31,1.24,-1.34,83.70,54.30,74.40,25.3
2026/04/13 15:00:19.91,IMU,21.48,-6.84,-1030.76,0.85,3.21,-0.18,83.70,53.25,74.85,25.5
2026/04/13 15:00:20.01,IMU,21.97,-19.53,-1019.04,1.56,2.63,0.89,84.15,53.40,75.00,25.7
2026/04/13 15:00:20.11,IMU,13.67,-25.39,-1019.04,2.22,2.40,-0.89,82.50,54.00,74.10,25.4
2026/04/13 15:00:20.21,IMU,17.58,-12.70,-1024.41,1.72,1.18,0.13,83.70,53.55,74.85,25.5
2026/04/13 15:00:20.31,IMU,0.98,-8.79,-1018.55,1.25,0.11,0.05,83.10,53.85,73.50,25.7
2026/04/13 15:00:20.41,IMU,7.81,-17.58,-1022.95,-0.66,0.89,-0.27,82.50,53.25,73.80,25.6
2026/04/13 15:00:20.51,IMU,4.39,-29.30,-1023.44,0.89,-0.11,0.92,82.20,54.00,74.40,25.4
2026/04/13 15:00:20.61,IMU,1.95,-16.11,-1015.63,0.27,3.14,-0.82,83.10,54.15,74.70,25.7
2026/04/13 15:00:20.71,IMU,10.74,-19.04,-1019.53,2.27,-1.15,0.66,84.15,52.65,73.95,25.7
2026/04/13 15:00:20.81,IMU,-5.37,-8.30,-1019.53,0.27,2.00,1.95,83.10,52.65,74.70,25.4
2026/04/13 15:00:20.91,IMU,4.39,-18.55,-1013.67,0.85,0.76,1.98,82.95,54.00,73.35,25.4
2026/04/13 15:00:21.01,IMU,15.63,-16.11,-1012.21,1.37,1.80,-1.66,82.50,52.50,73.80,25.4
2026/04/13 15:00:21.11,IMU,13.67,-10.74,-1022.95,0.96,1.51,0.24,84.60,53.85,74.25,25.7
2026/04/13 15:00:21.21,IMU,3.91,-25.39,-1019.53,2.72,2.02,1.45,82.50,52.80,73.80,25.5
2026/04/13 15:00:21.31,IMU,14.16,-18.07,-1015.14,0.60,1.03,1.05,83.10,53.85,75.30,25.4
2026/04/13 15:00:21.41,IMU,16.60,-24.90,-1021.48,3.85,1.60,-0.36,82.65,53.40,74.70,25.4
2026/04/13 15:00:21.51,IMU,6.35,-15.14,-1016.11,0.55,0.47,1.68,82.50,53.25,75.15,25.5
2026/04/13 15:00:21.61,IMU,12.70,-18.55,-1013.18,2.41,1.71,2.12,82.50,54.00,73.35,25.6
2026/04/13 15:00:21.71,IMU,2.44,-10.25,-1023.93,1.36,0.54,-0.75,83.40,52.65,75.30,25.6
2026/04/13 15:00:21.81,IMU,8.79,-11.23,-1020.02,0.77,-0.31,0.36,82.95,54.00,73.80,25.6
2026/04/13 15:00:21.91,IMU,10.25,-14.16,-1019.53,0.24,1.47,0.04,82.95,53.55,74.40,25.4
2026/04/13 15:00:22.01,IMU,3.91,-20.02,-1019.53,0.94,1.11,-1.27,83.40,54.60,74.70,25.6
2026/04/13 15:00:22.11,IMU,-1.95,-4.88,-1022.95,1.59,1.57,-0.36,80.40,51.30,78.45,25.3
2026/04/13 15:00:22.21,IMU,6.35,-14.16,-1008.30,1.00,0.73,-0.85,83.25,54.75,74.85,25.4
2026/04/13 15:00:22.31,IMU,26.37,-18.07,-1015.14,0.91,0.93,1.95,83.10,52.65,74.25,25.5
2026/04/13 15:00:22.41,IMU,19.53,-10.74,-1031.25,2.16,1.91,1.44,83.40,53.40,75.00,25.4
2026/04/13 15:00:22.51,IMU,8.79,-16.60,-1019.53,2.09,0.77,1.18,83.40,54.60,74.25,25.4
2026/04/13 15:00:22.62,IMU,2.93,-10.74,-1017.58,-0.34,3.55,0.61,82.20,53.25,73.80,25.4
2026/04/13 15:00:22.72,IMU,16.60,-14.65,-1022.46,3.40,1.73,2.13,83.10,54.60,73.95,25.7
2026/04/13 15:00:22.82,IMU,20.51,-14.16,-1012.70,1.82,1.46,1.64,82.95,54.00,74.10,25.4
2026/04/13 15:00:22.92,IMU,13.67,0.00,-1011.23,0.12,2.06,-0.92,82.35,54.90,74.70,25.5
2026/04/13 15:00:23.02,IMU,11.23,-20.02,-1009.28,1.47,-0.53,0.56,83.10,53.85,73.95,25.4
2026/04/13 15:00:23.12,IMU,10.25,-8.79,-1018.55,0.38,1.22,1.62,80.70,51.75,79.50,25.7
2026/04/13 15:00:23.22,IMU,16.60,-15.14,-1024.90,2.33,1.27,1.65,83.85,53.40,75.30,25.4
2026/04/13 15:00:23.32,IMU,13.67,-17.09,-1015.14,-0.76,0.28,-0.39,83.40,54.15,72.90,25.4
2026/04/13 15:00:23.42,IMU,4.39,-17.09,-1024.90,2.18,0.53,-0.06,82.50,54.30,73.35,25.4
2026/04/13 15:00:23.52,IMU,15.63,-10.74,-1017.58,1.49,1.58,1.21,82.95,53.55,75.60,25.6
2026/04/13 15:00:23.62,IMU,4.39,-2.93,-1020.02,3.61,-3.37,0.89,82.95,53.55,73.05,25.7
2026/04/13 15:00:23.72,IMU,4.88,-19.04,-1019.04,0.33,-0.55,-0.84,82.50,52.80,74.10,25.3
2026/04/13 15:00:23.82,IMU,12.21,-12.70,-1007.81,2.53,2.68,0.63,82.20,54.00,73.80,25.4
2026/04/13 15:00:23.92,IMU,15.14,-12.70,-1008.30,0.53,-0.67,-2.47,82.20,53.55,74.85,25.5
2026/04/13 15:00:24.02,IMU,11.72,-11.72,-1012.70,1.02,1.02,0.37,82.95,53.25,73.35,25.5
2026/04/13 15:00:24.12,IMU,-1.46,-1.46,-1022.95,2.69,2.43,0.79,82.95,52.05,75.15,25.4
2026/04/13 15:00:24.22,IMU,13.67,-23.93,-1018.07,0.02,0.37,0.50,82.50,54.75,74.85,25.5
2026/04/13 15:00:24.32,IMU,18.07,-21.97,-1017.09,-0.30,2.57,-2.33,83.85,54.15,73.50,25.7
2026/04/13 15:00:24.42,IMU,17.09,-7.32,-1021.00,0.11,1.78,0.58,82.65,53.40,74.25,25.8
2026/04/13 15:00:24.52,IMU,18.55,-18.07,-1017.58,1.85,1.20,0.49,82.35,51.45,73.50,25.8
2026/04/13 15:00:24.62,IMU,19.04,-8.79,-1014.16,2.67,1.77,-1.94,82.95,54.00,74.10,25.6
2026/04/13 15:00:24.72,IMU,3.91,-17.58,-1019.04,2.27,0.83,0.34,83.25,53.55,75.60,25.4
2026/04/13 15:00:24.82,IMU,4.39,-13.18,-1004.39,3.85,-0.15,0.03,82.35,54.15,74.70,25.6
2026/04/13 15:00:24.92,IMU,21.97,-14.65,-1020.51,1.69,1.69,0.59,83.40,54.60,73.50,25.4
2026/04/13 15:00:25.02,IMU,15.63,-12.70,-1019.04,-0.79,-0.08,-0.59,82.35,52.65,73.95,25.7
2026/04/13 15:00:25.12,IMU,18.55,-13.18,-1010.25,1.31,1.53,1.13,82.65,53.10,74.25,25.4
2026/04/13 15:00:25.23,IMU,6.35,-15.63,-1014.65,3.11,0.34,1.18,82.50,52.50,74.85,25.8
2026/04/13 15:00:25.33,IMU,18.55,-19.04,-1016.60,-0.03,4.16,-0.65,83.10,52.65,74.25,25.8
2026/04/13 15:00:25.43,IMU,15.63,-19.53,-1022.46,0.15,2.55,1.79,83.70,54.30,75.15,25.7
2026/04/13 15:00:25.53,IMU,6.84,-6.35,-1011.23,1.75,2.24,1.24,84.15,53.10,74.25,25.6
2026/04/13 15:00:25.63,IMU,2.93,-17.09,-1003.42,0.99,1.70,0.43,83.25,53.85,74.25,25.7
2026/04/13 15:00:25.73,IMU,6.84,-11.23,-1010.25,3.08,3.39,0.91,83.85,53.85,74.70,25.5
2026/04/13 15:00:25.83,IMU,17.58,-17.58,-1018.55,-0.13,0.30,-1.01,81.75,52.80,74.10,25.6
2026/04/13 15:00:25.93,IMU,7.81,-20.02,-1023.44,1.65,0.88,-0.18,83.70,53.25,74.85,25.4
2026/04/13 15:00:26.03,IMU,3.91,-19.53,-1022.46,1.50,2.89,-0.76,82.95,52.80,73.80,25.6
2026/04/13 15:00:26.13,IMU,13.18,-20.51,-1019.53,2.27,0.54,0.16,82.95,54.30,74.40,25.7
2026/04/13 15:00:26.23,IMU,9.77,-14.65,-1024.41,0.02,1.10,2.62,83.10,52.65,74.70,25.4
2026/04/13 15:00:26.33,IMU,18.55,-13.67,-1020.02,0.47,-0.74,-1.66,83.10,53.40,73.95,25.6
2026/04/13 15:00:26.43,IMU,15.14,-12.70,-1021.97,-0.32,-0.31,1.33,83.70,53.25,74.40,25.7
2026/04/13 15:00:26.53,IMU,9.77,-11.23,-1005.86,0.85,1.24,1.22,82.95,53.25,75.15,25.5
2026/04/13 15:00:26.63,IMU,1.95,-21.48,-1016.60,2.04,-1.85,-0.85,82.50,53.25,73.80,25.6
2026/04/13 15:00:26.73,IMU,16.60,-15.63,-1018.55,0.01,1.12,0.11,83.70,53.25,73.05,25.4
2026/04/13 15:00:26.83,IMU,3.91,-23.44,-1014.65,2.74,1.53,2.41,83.40,53.40,75.30,25.4
2026/04/13 15:00:26.93,IMU,0.00,-15.63,-1016.11,1.37,0.49,0.95,82.20,54.00,74.40,25.4
2026/04/13 15:00:27.03,IMU,18.07,-24.41,-1018.07,1.21,2.18,-1.52,83.10,53.40,75.00,25.4
2026/04/13 15:00:27.13,IMU,26.86,-24.90,-1017.58,1.58,0.96,1.63,82.05,54.60,74.25,25.7
2026/04/13 15:00:27.23,IMU,17.09,-16.11,-1016.60,-0.37,0.11,1.72,84.30,54.00,73.80,25.8
2026/04/13 15:00:27.33,IMU,10.74,-0.98,-1027.34,1.81,1.42,-0.28,84.15,53.85,73.95,25.7
2026/04/13 15:00:27.43,IMU,25.88,-10.25,-1006.84,0.14,0.97,-0.33,82.95,53.55,74.40,25.4
2026/04/13 15:00:27.53,IMU,8.79,-16.11,-1013.67,1.54,-0.49,0.27,81.45,53.55,73.35,25.4
2026/04/13 15:00:27.63,IMU,0.49,-10.25,-1018.07,1.32,0.58,-3.58,84.30,54.00,74.85,25.9
2026/04/13 15:00:27.73,IMU,9.77,-21.00,-1016.60,0.12,-0.08,-2.66,83.85,54.15,75.75,25.5
2026/04/13 15:00:27.83,IMU,19.04,-16.60,-1016.11,1.96,-1.79,1.41,82.35,53.10,74.25,25.5
2026/04/13 15:00:27.93,IMU,7.81,-19.53,-1021.97,0.73,1.66,-1.11,83.70,52.80,74.40,25.7
2026/04/13 15:00:28.03,IMU,1.46,-12.21,-1011.23,0.34,1.25,-2.26,82.95,53.55,74.85,25.4
2026/04/13 15:00:28.13,IMU,13.18,-16.60,-1029.79,0.35,3.04,0.01,83.25,52.50,75.60,25.7
2026/04/13 15:00:28.23,IMU,7.81,-12.21,-1026.86,2.24,0.35,2.24,83.25,54.30,74.10,25.4
2026/04/13 15:00:28.33,IMU,10.74,-15.63,-1020.51,1.32,-1.02,-0.11,82.95,53.25,74.40,25.7
2026/04/13 15:00:28.43,IMU,8.30,-11.72,-1016.11,-0.47,2.85,-0.71,83.40,54.15,74.25,25.5
2026/04/13 15:00:28.53,IMU,14.16,-10.25,-1015.14,0.85,1.08,0.15,82.65,52.65,74.25,25.4
2026/04/13 15:00:28.63,IMU,9.28,-20.51,-1023.44,1.26,1.15,-0.04,82.50,54.00,74.85,25.6
2026/04/13 15:00:28.73,IMU,4.88,-6.84,-1010.74,-0.59,-0.90,0.17,83.85,52.65,74.70,25.4
2026/04/13 15:00:28.83,IMU,19.04,-14.65,-1022.95,0.40,3.86,0.63,82.95,52.50,73.80,25.6
2026/04/13 15:00:28.93,IMU,6.35,-22.95,-1017.58,1.10,1.78,-1.53,82.65,52.20,74.25,25.6
2026/04/13 15:00:29.03,IMU,2.44,-35.16,-1021.97,2.52,-2.05,0.76,82.65,51.45,75.30,25.4
2026/04/13 15:00:29.13,IMU,3.91,-9.77,-1025.39,0.99,0.96,0.54,82.95,53.25,74.10,25.7
2026/04/13 15:00:29.23,IMU,28.32,-20.51,-1013.67,-0.15,3.02,1.56,82.20,52.80,74.40,25.9
2026/04/13 15:00:29.33,IMU,7.32,-16.60,-1024.41,2.47,1.00,0.76,82.35,54.15,73.95,25.7
2026/04/13 15:00:29.43,IMU,2.93,-10.25,-1016.60,-0.09,-0.11,0.56,83.85,53.40,74.40,25.4
2026/04/13 15:00:29.53,IMU,20.02,-19.04,-1014.16,0.08,3.36,0.74,83.70,53.55,74.85,25.6
2026/04/13 15:00:29.63,IMU,13.18,-15.14,-1021.97,1.34,2.53,0.03,83.40,53.85,75.00,25.6
2026/04/13 15:00:29.73,IMU,8.30,-17.58,-1015.63,1.55,2.02,1.69,82.95,51.75,74.10,25.9
2026/04/13 15:00:29.83,IMU,15.14,-15.14,-1024.90,0.81,1.21,2.51,83.40,54.15,75.00,25.5
2026/04/13 15:00:29.94,IMU,9.28,-25.39,-1022.46,0.95,0.95,1.53,82.20,52.50,73.80,25.7
2026/04/13 15:00:30.04,IMU,9.77,-11.23,-1023.44,1.79,0.60,2.30,85.65,53.40,73.20,25.5
2026/04/13 15:00:30.14,IMU,8.79,-1.46,-1017.09,4.44,-0.27,-0.11,83.85,53.85,75.00,25.7
2026/04/13 15:00:30.24,IMU,23.44,-10.74,-1020.02,1.45,2.18,1.12,82.05,50.70,78.60,25.6
2026/04/13 15:00:30.34,IMU,12.70,-5.37,-1007.32,0.95,-0.14,-0.63,82.95,54.00,74.85,25.6
2026/04/13 15:00:30.44,IMU,4.88,-8.79,-1011.72,1.44,1.71,0.94,82.35,52.20,73.20,25.6
2026/04/13 15:00:30.54,IMU,3.42,-14.16,-1016.60,1.10,-0.10,1.43,83.10,52.20,74.25,25.4
2026/04/13 15:00:30.64,IMU,12.70,-15.14,-1017.09,0.55,2.56,1.44,83.40,53.10,74.70,25.3
2026/04/13 15:00:30.74,IMU,6.35,-16.60,-1012.70,1.53,1.60,0.66,83.85,53.10,73.50,25.6
2026/04/13 15:00:30.84,IMU,16.11,-14.65,-1020.51,0.11,-1.21,0.11,83.25,54.00,74.40,25.5
2026/04/13 15:00:30.94,IMU,10.74,-7.32,-1008.30,1.05,1.41,2.11,83.25,52.80,73.35,25.6
2026/04/13 15:00:31.04,IMU,3.42,-6.35,-1019.04,2.30,0.11,3.34,83.40,54.15,75.30,25.7
2026/04/13 15:00:31.14,IMU,10.25,-4.39,-1010.74,0.37,0.22,-0.18,84.15,54.15,73.20,25.6
2026/04/13 15:00:31.24,IMU,25.39,-7.81,-1010.25,0.60,0.43,0.03,81.00,51.75,78.45,25.5
2026/04/13 15:00:31.34,IMU,20.02,-4.88,-1018.55,0.11,-1.10,-1.79,83.40,53.85,73.95,25.4
2026/04/13 15:00:31.44,IMU,21.97,-18.55,-1021.00,-0.21,1.41,-0.11,82.05,54.15,74.70,25.3
2026/04/13 15:00:31.54,IMU,3.42,-17.09,-1020.51,1.82,2.05,-1.12,82.95,52.50,74.10,25.6
2026/04/13 15:00:31.64,IMU,18.55,-16.60,-1012.70,0.29,1.33,1.37,82.20,53.25,73.05,25.7
2026/04/13 15:00:31.74,IMU,21.97,-6.84,-1021.97,0.51,2.00,-0.84,82.65,53.10,74.25,25.7
2026/04/13 15:00:31.84,IMU,6.35,-14.65,-1009.77,1.83,1.21,1.85,83.70,52.05,73.35,25.7
2026/04/13 15:00:31.94,IMU,2.93,-8.79,-1011.72,2.53,-1.40,-0.36,82.95,54.30,75.15,25.7
2026/04/13 15:00:32.04,IMU,8.79,-28.32,-1025.39,0.53,1.54,0.78,83.10,53.10,75.00,25.7
2026/04/13 15:00:32.14,IMU,16.60,-14.65,-1023.44,1.18,2.47,0.06,83.25,52.50,74.40,25.4
2026/04/13 15:00:32.24,IMU,3.42,-12.70,-1018.55,2.61,2.24,1.37,83.70,49.80,77.70,25.4
2026/04/13 15:00:32.34,IMU,9.28,-10.74,-1017.58,2.11,1.31,-0.20,83.85,54.15,75.75,25.3
2026/04/13 15:00:32.44,IMU,19.04,-22.95,-1013.18,0.43,3.39,1.20,82.95,53.55,75.60,25.7
2026/04/13 15:00:32.54,IMU,17.09,-1.95,-1021.00,0.89,0.31,0.47,83.85,53.40,73.50,25.4
2026/04/13 15:00:32.64,IMU,16.60,-17.09,-1009.28,0.48,-0.48,1.02,82.65,54.60,74.25,25.9
2026/04/13 15:00:32.74,IMU,15.63,-14.16,-1017.09,3.39,2.09,-2.04,82.50,54.30,74.10,25.4
2026/04/13 15:00:32.84,IMU,12.21,-13.67,-1015.14,0.98,1.54,0.89,83.25,54.30,74.85,25.5
2026/04/13 15:00:32.94,IMU,16.60,-22.46,-1016.11,2.78,1.08,-0.88,83.10,53.40,75.30,25.5
2026/04/13 15:00:33.04,IMU,3.42,-9.77,-1015.63,0.40,-0.60,1.67,82.95,53.55,74.40,25.9
2026/04/13 15:00:33.14,IMU,13.18,-7.81,-1028.32,-0.38,1.41,-0.51,82.50,53.55,75.15,25.6
2026/04/13 15:00:33.25,IMU,13.18,-12.70,-1023.93,1.85,-0.69,1.91,84.60,52.20,74.70,25.4
2026/04/13 15:00:33.35,IMU,27.34,-11.72,-1014.16,-0.50,0.68,-0.11,83.40,54.15,74.25,25.5
2026/04/13 15:00:33.45,IMU,14.65,-14.16,-1027.34,2.56,0.00,0.97,83.85,52.65,74.70,25.5
2026/04/13 15:00:33.55,IMU,2.93,-14.65,-1009.28,1.05,0.69,-0.81,83.70,52.80,74.85,25.7
2026/04/13 15:00:33.65,IMU,16.60,-15.63,-1020.02,-0.24,0.33,-0.41,82.65,53.85,74.25,25.7
2026/04/13 15:00:33.75,IMU,-0.98,-19.53,-1018.55,1.85,0.80,2.41,83.85,53.85,73.95,25.4
2026/04/13 15:00:33.85,IMU,12.70,-12.70,-1015.14,1.76,1.41,0.08,82.95,54.75,74.10,25.5
2026/04/13 15:00:33.95,IMU,7.32,-12.21,-1018.55,0.35,2.33,-0.28,83.40,53.10,74.25,25.6
2026/04/13 15:00:34.05,IMU,9.77,-14.16,-1025.39,1.76,1.27,0.87,83.85,53.10,75.00,25.4
2026/04/13 15:00:34.15,IMU,15.63,-7.81,-1019.04,1.83,2.75,-0.37,82.95,53.25,74.85,25.4
2026/04/13 15:00:34.25,IMU,11.23,-26.37,-1021.97,0.90,1.56,-0.47,82.20,53.55,75.90,25.6
2026/04/13 15:00:34.35,IMU,15.14,-3.91,-1015.63,0.98,2.26,0.51,82.65,53.10,74.70,25.7
2026/04/13 15:00:34.45,IMU,12.70,-24.90,-1003.42,0.33,-1.39,0.11,82.95,52.80,74.40,25.8
2026/04/13 15:00:34.55,IMU,14.16,-17.09,-1007.32,2.08,1.64,-0.37,83.25,53.25,74.40,25.6
2026/04/13 15:00:34.65,IMU,15.63,-13.18,-1025.39,0.27,2.08,1.46,83.40,53.10,74.25,25.7
2026/04/13 15:00:34.75,IMU,-0.98,-15.63,-1020.51,2.49,-0.72,-0.33,83.85,54.15,75.00,25.5
2026/04/13 15:00:34.85,IMU,1.46,-12.21,-1022.95,2.87,2.31,-1.08,82.35,53.85,74.25,25.8
2026/04/13 15:00:34.95,IMU,8.79,-14.65,-1016.60,0.95,0.44,1.12,82.20,53.25,74.85,25.4
2026/04/13 15:00:35.05,IMU,11.23,-13.18,-1024.41,1.59,2.27,-1.31,83.25,53.55,74.40,25.5
2026/04/13 15:00:35.15,IMU,8.79,-19.53,-1015.63,1.52,0.74,0.82,83.25,53.25,73.05,25.4
2026/04/13 15:00:35.25,IMU,6.35,-15.63,-1008.79,2.00,0.53,0.87,84.90,54.15,75.00,25.4
2026/04/13 15:00:35.35,IMU,10.25,-20.02,-1027.83,-0.33,3.42,-1.40,82.65,54.15,75.00,25.6
2026/04/13 15:00:35.45,IMU,9.77,-11.72,-1015.14,1.69,1.44,2.76,83.10,52.65,74.25,25.7
2026/04/13 15:00:35.55,IMU,9.28,-24.90,-994.14,2.21,2.27,0.32,83.25,53.55,73.05,25.7
2026/04/13 15:00:35.65,IMU,11.23,-12.21,-1024.41,0.26,-2.36,2.08,81.60,54.90,74.70,25.7
2026/04/13 15:00:35.75,IMU,12.21,-19.04,-1005.86,1.60,0.21,0.67,83.10,54.15,73.50,25.4
2026/04/13 15:00:35.85,IMU,8.30,-6.84,-1017.58,1.88,-0.18,0.14,82.20,51.75,74.40,25.7
2026/04/13 15:00:35.96,IMU,13.67,-19.53,-1023.93,-0.50,1.53,-1.79,83.85,52.20,74.70,25.5
2026/04/13 15:00:36.06,IMU,13.67,-12.70,-1017.09,1.02,1.23,-0.22,83.25,54.30,75.90,25.7
2026/04/13 15:00:36.16,IMU,1.46,-21.97,-1018.55,1.50,1.94,-0.34,81.60,53.10,75.00,25.2
2026/04/13 15:00:36.26,IMU,13.18,-15.63,-1018.07,1.46,1.02,1.02,83.85,53.10,73.20,25.4
2026/04/13 15:00:36.36,IMU,17.09,-10.74,-1016.60,1.20,1.57,-1.10,82.35,53.40,73.50,25.6
2026/04/13 15:00:36.46,IMU,21.00,-18.07,-1027.34,1.79,1.64,0.47,83.85,54.60,74.25,25.5
2026/04/13 15:00:36.56,IMU,15.14,-11.23,-1023.93,1.56,0.60,-1.10,83.10,53.85,75.00,25.5
2026/04/13 15:00:36.66,IMU,17.58,-14.65,-1016.60,1.50,-1.53,0.44,83.85,52.65,74.70,25.7
2026/04/13 15:00:36.76,IMU,11.72,-14.16,-1014.16,0.54,-0.61,-2.20,84.15,53.40,75.30,25.4
2026/04/13 15:00:36.86,IMU,5.86,-17.09,-1020.02,3.24,0.50,0.84,83.25,52.80,74.10,25.4
2026/04/13 15:00:36.96,IMU,18.07,-22.95,-1028.32,2.03,2.74,-0.41,82.65,53.40,74.25,25.7
2026/04/13 15:00:37.06,IMU,14.16,-16.11,-1004.39,1.26,2.58,-0.98,83.40,53.85,74.70,25.4
2026/04/13 15:00:37.16,IMU,19.53,-17.09,-1026.86,1.00,0.74,0.43,82.05,54.15,73.50,25.5
2026/04/13 15:00:37.26,IMU,22.46,-14.65,-1022.95,1.68,-0.80,2.85,84.15,53.40,73.95,25.7
2026/04/13 15:00:37.36,IMU,10.74,-21.97,-1011.23,2.52,-0.76,-0.11,83.10,53.40,74.70,25.5
2026/04/13 15:00:37.46,IMU,12.21,-13.67,-1005.37,1.11,-1.51,1.60,84.15,51.45,75.30,25.4
2026/04/13 15:00:37.56,IMU,9.28,-15.14,-1007.32,2.32,1.15,-1.30,82.65,53.10,73.95,25.2
2026/04/13 15:00:37.66,IMU,3.42,-13.67,-1025.88,1.89,-0.93,2.06,84.60,53.85,74.70,25.4
2026/04/13 15:00:37.76,IMU,0.98,-20.51,-1015.14,-0.74,-0.20,1.05,82.65,52.20,75.00,25.7
2026/04/13 15:00:37.86,IMU,16.60,-21.97,-1022.46,2.29,1.31,0.77,84.30,52.05,75.15,25.7
2026/04/13 15:00:37.96,IMU,11.72,-37.60,-1011.23,1.08,0.00,-1.76,82.95,53.25,74.85,25.4
2026/04/13 15:00:38.06,IMU,14.16,-15.63,-1014.16,0.64,3.07,-0.26,82.95,53.55,73.80,25.7
2026/04/13 15:00:38.16,IMU,9.77,-22.46,-1020.51,0.52,0.89,-1.02,83.70,53.55,74.10,25.7
2026/04/13 15:00:38.26,IMU,5.37,-20.51,-1013.18,0.08,0.87,2.22,84.00,54.00,75.60,25.5
2026/04/13 15:00:38.36,IMU,10.74,-0.49,-1017.58,0.58,1.60,1.13,84.60,53.40,74.70,25.4
2026/04/13 15:00:38.46,IMU,7.81,-16.60,-1020.51,1.14,0.67,0.85,84.15,54.60,74.70,25.4
2026/04/13 15:00:38.56,IMU,19.53,-4.88,-1021.97,0.95,0.86,-2.44,83.85,52.65,73.95,25.4
2026/04/13 15:00:38.66,IMU,0.49,-16.11,-1019.04,2.82,0.84,1.17,83.40,53.10,75.30,25.4
2026/04/13 15:00:38.76,IMU,10.74,-21.00,-1023.44,-1.53,1.21,1.24,82.20,53.25,73.80,25.5
2026/04/13 15:00:38.86,IMU,11.23,-14.16,-1020.02,-0.33,-0.10,1.34,83.25,52.50,75.60,25.4
2026/04/13 15:00:38.96,IMU,13.67,-17.09,-1023.44,2.46,1.73,-0.56,80.85,53.40,75.00,25.7
2026/04/13 15:00:39.06,IMU,18.07,-10.74,-1009.77,0.53,-1.08,0.49,84.00,53.55,74.85,25.5
2026/04/13 15:00:39.16,IMU,8.79,-23.93,-1030.27,2.17,3.16,-0.80,83.40,53.40,73.50,25.5
2026/04/13 15:00:39.26,IMU,23.44,-8.79,-1009.28,0.11,3.47,2.27,84.00,53.25,74.85,25.7
2026/04/13 15:00:39.36,IMU,22.95,-27.34,-1010.25,-0.76,1.74,0.11,82.65,54.15,75.00,25.4
2026/04/13 15:00:39.46,IMU,7.81,-22.95,-1017.58,2.69,2.05,0.32,83.10,53.10,74.70,25.7
2026/04/13 15:00:39.56,IMU,0.00,-0.98,-1010.74,1.17,1.27,0.84,83.25,53.25,74.40,25.4
2026/04/13 15:00:39.66,IMU,14.16,-15.14,-1030.76,0.24,0.76,-0.73,81.75,52.50,74.40,25.5
2026/04/13 15:00:39.76,IMU,5.37,-15.14,-1037.60,1.11,2.32,2.14,82.50,53.55,75.15,25.7
2026/04/13 15:00:39.86,IMU,13.18,-4.39,-1008.30,1.04,-0.11,1.11,83.10,53.40,74.25,25.6
2026/04/13 15:00:39.96,IMU,9.28,-9.77,-1024.41,-0.09,1.81,-1.78,81.75,53.55,75.15,25.6
2026/04/13 15:00:40.06,IMU,8.30,-25.88,-1020.02,-0.79,1.34,0.41,82.35,53.40,73.50,25.4
2026/04/13 15:00:40.16,IMU,12.70,-13.67,-1014.65,1.18,1.15,2.09,84.30,52.80,74.10,25.7
2026/04/13 15:00:40.26,IMU,8.30,-8.79,-1029.30,-0.50,2.47,0.90,84.15,53.10,73.95,25.7
2026/04/13 15:00:40.36,IMU,23.93,-6.84,-1019.04,1.20,0.53,0.51,79.35,51.90,78.90,25.3
2026/04/13 15:00:40.46,IMU,13.67,-20.51,-1021.48,2.29,0.08,0.96,84.00,52.05,75.15,25.4
2026/04/13 15:00:40.57,IMU,7.81,-21.48,-1015.14,1.68,0.82,-0.71,83.85,52.65,74.25,25.7
2026/04/13 15:00:40.67,IMU,0.00,-13.67,-1020.02,0.89,1.38,0.37,83.85,52.20,74.25,25.6
2026/04/13 15:00:40.77,IMU,9.28,-9.77,-1002.93,1.87,1.02,1.05,82.20,54.75,74.85,25.7
2026/04/13 15:00:40.87,IMU,6.35,-13.67,-1029.30,-1.02,2.00,0.46,82.20,54.30,75.15,25.4
2026/04/13 15:00:40.97,IMU,7.32,0.98,-1010.74,1.82,1.03,1.56,82.65,54.15,73.95,25.4
2026/04/13 15:00:41.07,IMU,7.32,-4.88,-1021.97,0.78,-1.41,0.38,83.70,53.25,74.40,25.5
2026/04/13 15:00:41.17,IMU,19.53,-4.88,-1011.23,2.73,2.53,-1.43,81.60,54.60,73.95,25.4
2026/04/13 15:00:41.27,IMU,10.74,-17.09,-1016.11,0.28,2.63,0.78,82.65,54.60,74.25,25.7
2026/04/13 15:00:41.37,IMU,6.84,-15.14,-1017.09,0.13,2.50,1.82,83.40,53.40,74.25,25.6
2026/04/13 15:00:41.47,IMU,20.02,-16.11,-1023.44,-1.59,1.35,2.40,83.10,52.20,74.70,25.7
2026/04/13 15:00:41.57,IMU,13.18,-17.58,-1024.90,0.95,0.55,0.39,82.65,53.40,74.25,25.7
2026/04/13 15:00:41.67,IMU,11.23,-13.67,-1021.48,0.00,1.24,0.98,84.15,52.20,74.25,25.4
2026/04/13 15:00:41.77,IMU,1.46,-12.21,-1012.70,-0.88,1.63,-1.85,82.95,53.25,75.15,25.7
2026/04/13 15:00:41.87,IMU,9.28,-6.84,-1021.97,1.60,-0.54,2.28,81.45,52.05,74.10,25.7
2026/04/13 15:00:41.97,IMU,13.67,-27.34,-1008.79,-0.47,-1.15,2.13,84.15,53.85,73.50,25.7
2026/04/13 15:00:42.07,IMU,18.55,-7.32,-1031.74,0.78,1.53,-0.32,82.95,53.55,74.85,25.6
2026/04/13 15:00:42.17,IMU,6.35,-9.77,-1010.74,-1.42,-0.23,2.34,82.65,54.15,74.25,25.6
2026/04/13 15:00:42.27,IMU,-1.95,-13.67,-1019.04,2.71,2.05,0.53,82.65,54.15,75.00,25.7
2026/04/13 15:00:42.38,IMU,14.65,-20.51,-1028.32,1.20,2.14,1.47,80.85,51.90,79.65,25.7
2026/04/13 15:00:42.48,IMU,19.53,-17.58,-1020.51,1.61,2.71,1.15,82.50,54.00,75.15,25.4
2026/04/13 15:00:42.58,IMU,9.28,-18.07,-1019.04,1.98,-0.20,-0.44,83.40,53.10,74.70,25.6
2026/04/13 15:00:42.68,IMU,18.07,-21.97,-1022.46,2.54,2.05,0.98,82.20,53.55,74.40,25.6
2026/04/13 15:00:42.78,IMU,18.07,-11.72,-1010.74,0.92,0.92,-1.05,83.10,54.15,74.25,25.4
2026/04/13 15:00:42.88,IMU,6.35,-9.28,-1005.37,0.08,1.91,-0.08,83.25,54.00,73.80,25.2
2026/04/13 15:00:42.98,IMU,2.93,-14.65,-996.58,0.86,2.53,-0.80,83.10,53.40,73.50,25.7
2026/04/13 15:00:43.08,IMU,1.95,-21.48,-1013.18,0.85,3.37,0.90,82.65,54.15,75.00,25.7
2026/04/13 15:00:43.18,IMU,2.93,-12.70,-1017.09,1.01,0.00,-3.02,83.25,52.80,73.35,25.7
2026/04/13 15:00:43.28,IMU,10.25,-19.53,-1017.09,0.63,1.66,-1.38,83.10,53.10,75.00,25.4
2026/04/13 15:00:43.38,IMU,-2.44,-12.21,-1013.18,0.41,0.75,-0.60,84.75,53.25,74.85,25.7
2026/04/13 15:00:43.48,IMU,19.53,-31.74,-1015.63,2.52,1.67,-0.79,83.25,52.50,75.60,25.4
2026/04/13 15:00:43.58,IMU,-1.46,-17.58,-1016.11,1.40,1.34,1.35,83.85,53.85,75.00,25.3
2026/04/13 15:00:43.68,IMU,12.70,-13.18,-1024.41,2.65,3.17,0.72,82.50,53.25,74.10,25.4
2026/04/13 15:00:43.78,IMU,-4.39,-21.00,-1010.25,0.74,0.64,1.26,82.50,54.00,74.10,25.5
2026/04/13 15:00:43.88,IMU,21.97,-29.30,-1017.58,1.32,1.08,-2.12,82.35,54.15,75.00,25.6
2026/04/13 15:00:43.98,IMU,12.21,-7.32,-1015.14,-0.24,2.32,2.49,82.50,52.80,74.85,25.7
2026/04/13 15:00:44.08,IMU,13.18,-16.60,-1008.79,0.96,0.90,-1.55,83.25,53.55,74.85,25.7
2026/04/13 15:00:44.18,IMU,20.02,-19.04,-1016.60,0.28,2.21,2.39,83.40,53.10,75.30,25.8
2026/04/13 15:00:44.28,IMU,24.41,-20.51,-1020.51,2.57,1.47,-2.13,84.30,53.25,74.10,25.7
2026/04/13 15:00:44.38,IMU,18.07,-7.81,-1014.16,1.79,2.02,-0.98,83.10,53.40,73.95,25.4
2026/04/13 15:00:44.48,IMU,10.74,-12.70,-1018.55,-0.59,-1.56,2.46,83.70,52.50,75.15,25.3
2026/04/13 15:00:44.58,IMU,15.63,-27.34,-1025.88,0.84,-0.51,-1.98,82.20,54.00,74.10,25.8
2026/04/13 15:00:44.68,IMU,11.72,-13.67,-1012.70,0.03,1.81,-0.67,83.10,54.60,73.20,25.5
2026/04/13 15:00:44.78,IMU,7.32,-16.11,-1011.23,1.85,-0.20,2.84,83.10,54.15,74.25,25.4
2026/04/13 15:00:44.88,IMU,5.37,-29.79,-1018.55,0.11,1.44,0.98,84.00,52.05,73.05,25.4
2026/04/13 15:00:44.98,IMU,23.44,-15.14,-1013.67,0.96,1.92,0.44,83.40,52.65,75.75,25.5
2026/04/13 15:00:45.08,IMU,18.07,-10.74,-1018.07,1.37,0.96,-1.37,83.40,52.65,74.25,25.6
2026/04/13 15:00:45.18,IMU,7.32,-13.18,-1015.14,-0.89,2.34,0.49,83.40,53.85,76.80,25.3
2026/04/13 15:00:45.28,IMU,-0.98,5.37,-1014.65,1.65,1.76,0.02,82.35,54.15,73.95,25.7
2026/04/13 15:00:45.38,IMU,6.84,-21.97,-1008.30,-0.81,1.15,-1.64,82.65,52.65,74.25,25.7
2026/04/13 15:00:45.48,IMU,11.23,-5.37,-1022.95,1.95,0.51,-1.48,83.40,53.10,73.95,25.3
2026/04/13 15:00:45.58,IMU,7.32,-15.63,-1027.83,-0.50,1.61,2.24,82.35,53.10,74.70,25.7
2026/04/13 15:00:45.68,IMU,7.81,-19.53,-1020.02,0.80,0.41,-0.55,83.40,54.15,72.15,25.4
2026/04/13 15:00:45.78,IMU,9.77,-11.72,-1035.16,1.23,2.79,-0.05,82.20,54.00,74.85,25.7
2026/04/13 15:00:45.88,IMU,6.84,-20.51,-1023.93,-1.76,1.11,1.22,82.50,53.25,74.85,25.4
2026/04/13 15:00:45.98,IMU,9.77,-18.55,-1013.18,0.13,2.92,0.65,83.40,54.15,75.00,25.3
2026/04/13 15:00:46.09,IMU,13.18,-22.46,-1009.28,1.93,2.48,0.90,83.70,53.55,74.10,25.8
2026/04/13 15:00:46.19,IMU,4.88,-9.28,-1019.53,0.17,-0.11,-0.97,84.60,54.15,74.70,25.5
2026/04/13 15:00:46.29,IMU,2.93,-11.72,-1018.55,1.50,0.66,2.17,82.35,54.90,75.00,25.4
2026/04/13 15:00:46.39,IMU,21.00,-19.04,-1011.23,0.32,-0.22,-1.53,82.50,52.80,74.40,25.3
2026/04/13 15:00:46.49,IMU,16.11,-14.65,-1020.51,1.51,0.51,1.12,82.20,52.50,74.10,25.6
2026/04/13 15:00:46.59,IMU,-3.42,-18.07,-1010.74,0.46,-0.08,1.29,82.20,53.55,75.90,25.6
2026/04/13 15:00:46.69,IMU,9.77,-15.14,-1020.02,1.81,-1.86,0.47,84.30,53.25,74.10,25.7
2026/04/13 15:00:46.79,IMU,19.04,-20.02,-1023.44,1.56,1.74,-1.95,82.65,53.40,75.00,25.4
2026/04/13 15:00:46.89,IMU,16.11,-12.70,-1026.37,1.10,-0.42,-1.05,83.10,53.40,74.25,25.4
2026/04/13 15:00:46.99,IMU,28.81,-14.65,-1016.11,2.25,-1.21,1.29,81.75,53.55,74.10,25.6
2026/04/13 15:00:47.09,IMU,11.72,-21.97,-1011.72,1.17,1.59,1.66,82.35,52.65,74.70,25.8
2026/04/13 15:00:47.19,IMU,0.98,-20.02,-1012.21,1.05,0.01,1.37,85.05,54.75,74.40,25.2
2026/04/13 15:00:47.29,IMU,12.70,-14.16,-1028.32,2.50,2.97,0.69,83.10,52.20,74.25,25.6
2026/04/13 15:00:47.39,IMU,11.72,-11.23,-1011.72,2.04,1.21,0.79,84.00,53.25,73.35,25.7
2026/04/13 15:00:47.49,IMU,8.30,-17.09,-1025.88,1.61,0.69,-0.19,83.25,52.50,74.10,25.6
2026/04/13 15:00:47.59,IMU,13.18,-11.72,-1024.90,2.55,0.33,1.84,83.40,51.15,72.90,25.6
2026/04/13 15:00:47.69,IMU,0.49,-12.70,-1016.11,2.36,1.25,0.23,83.40,52.65,75.30,25.6
2026/04/13 15:00:47.79,IMU,13.18,-13.67,-1023.44,1.49,-1.16,2.66,83.70,52.80,75.90,25.7
2026/04/13 15:00:47.89,IMU,10.74,-11.72,-1016.11,0.17,-0.39,-3.37,83.85,51.90,75.30,25.5
2026/04/13 15:00:47.99,IMU,14.65,-21.00,-1020.51,0.89,1.69,0.70,82.35,52.65,75.00,25.6
2026/04/13 15:00:48.09,IMU,16.11,-14.16,-1022.95,-2.48,0.66,1.95,83.10,54.15,73.95,25.4
2026/04/13 15:00:48.19,IMU,10.74,-20.02,-1015.14,1.00,1.13,1.20,84.30,53.55,73.35,25.6
2026/04/13 15:00:48.29,IMU,18.07,-15.14,-1011.72,-0.19,1.99,-0.50,82.65,53.40,75.00,25.3
2026/04/13 15:00:48.39,IMU,8.79,-12.70,-1020.02,1.63,1.88,-1.42,83.10,53.85,74.25,25.5
2026/04/13 15:00:48.49,IMU,11.72,-24.41,-1012.70,1.01,2.31,0.87,84.60,54.60,75.00,25.8
2026/04/13 15:00:48.59,IMU,5.86,-21.00,-1015.14,1.46,2.79,-0.04,83.85,53.40,72.15,25.4
2026/04/13 15:00:48.69,IMU,22.46,-8.30,-1029.30,-0.42,1.94,2.27,84.00,51.75,73.80,25.7
2026/04/13 15:00:48.79,IMU,11.72,-16.60,-1019.04,1.27,3.02,2.08,83.10,53.40,76.05,25.7
2026/04/13 15:00:48.89,IMU,11.23,-25.39,-1026.37,1.88,0.64,-0.94,82.50,51.75,74.85,25.8
2026/04/13 15:00:48.99,IMU,7.32,-14.65,-1000.00,1.86,2.29,-1.39,82.50,52.50,74.40,25.6
2026/04/13 15:00:49.09,IMU,9.77,-26.37,-1018.55,0.74,1.18,-1.27,82.95,53.55,75.15,25.4
2026/04/13 15:00:49.19,IMU,18.07,-18.07,-1014.16,0.27,2.54,0.37,83.10,53.85,74.25,25.6
2026/04/13 15:00:49.29,IMU,11.23,-8.79,-1012.70,0.35,-0.60,0.07,83.10,52.65,73.95,25.6
2026/04/13 15:00:49.39,IMU,21.00,-10.74,-1021.97,1.03,-0.19,-0.11,82.95,52.80,73.35,25.4
2026/04/13 15:00:49.49,IMU,14.65,-23.44,-1011.72,1.56,1.03,-2.92,81.30,52.65,76.50,25.6
2026/04/13 15:00:49.59,IMU,2.93,-14.65,-1020.02,0.76,0.57,2.22,83.70,54.30,75.60,25.7
2026/04/13 15:00:49.69,IMU,1.46,-25.39,-1013.67,0.66,0.59,3.14,82.65,53.10,75.75,25.5
2026/04/13 15:00:49.79,IMU,18.55,-21.48,-1017.58,0.50,-0.27,-1.89,83.40,53.40,74.70,25.4
2026/04/13 15:00:49.89,IMU,14.65,-18.07,-1008.30,2.04,0.34,-0.79,84.00,52.80,73.80,25.4
2026/04/13 15:00:49.99,IMU,11.72,-16.11,-1006.35,2.31,1.12,0.39,82.65,52.20,74.70,25.7
2026/04/13 15:00:50.09,IMU,8.30,-9.77,-1005.37,-0.33,-1.60,-1.22,83.25,54.75,75.15,25.7
2026/04/13 15:00:50.19,IMU,10.74,-15.14,-1010.25,1.69,1.44,0.30,82.65,52.65,74.70,25.4
2026/04/13 15:00:50.29,IMU,17.09,-32.23,-1012.21,-0.31,0.79,0.07,82.50,54.00,75.60,25.6
2026/04/13 15:00:50.39,IMU,21.97,-21.97,-997.56,-0.31,2.57,0.23,83.40,53.40,74.70,25.8
2026/04/13 15:00:50.49,IMU,21.00,-5.86,-1022.46,1.62,-0.18,-0.99,82.95,51.75,76.95,25.7
2026/04/13 15:00:50.59,IMU,16.60,-27.34,-1025.39,3.13,1.45,-0.65,82.65,54.60,76.05,25.3
2026/04/13 15:00:50.69,IMU,16.60,4.88,-1016.60,2.07,0.02,1.34,83.70,52.50,74.40,25.2
2026/04/13 15:00:50.80,IMU,13.18,-12.70,-1021.00,1.66,2.65,-3.15,84.00,53.25,74.85,25.7
2026/04/13 15:00:50.90,IMU,11.72,-21.48,-1013.18,1.37,0.19,-0.45,82.35,54.15,75.75,25.7
2026/04/13 15:00:51.00,IMU,16.11,-13.18,-1016.11,2.52,1.55,1.12,81.30,53.10,75.00,25.8
2026/04/13 15:00:51.10,IMU,13.67,-15.14,-1011.23,2.47,0.69,0.56,83.10,52.20,75.75,25.4
2026/04/13 15:00:51.20,IMU,13.18,-18.55,-1017.58,0.10,1.60,0.98,82.65,53.40,75.30,25.8
2026/04/13 15:00:51.30,IMU,14.65,-11.72,-1013.18,1.56,3.57,-0.64,83.40,53.40,73.95,25.8
2026/04/13 15:00:51.40,IMU,15.14,-8.30,-1018.55,0.53,2.15,1.42,82.05,53.10,74.25,25.2
2026/04/13 15:00:51.50,IMU,1.95,-14.65,-1016.60,0.89,-0.61,1.27,83.25,52.05,74.40,25.7
2026/04/13 15:00:51.60,IMU,6.84,-8.79,-1007.81,1.61,0.44,1.22,82.35,52.65,74.25,25.7
2026/04/13 15:00:51.70,IMU,12.21,-12.21,-1025.88,2.63,2.18,1.40,82.65,54.90,74.25,25.5
2026/04/13 15:00:51.80,IMU,0.49,-14.65,-1013.18,1.04,1.47,-0.51,82.65,53.85,75.00,25.4
2026/04/13 15:00:51.90,IMU,3.91,-12.21,-1016.60,0.21,0.73,1.23,82.95,52.50,75.15,25.4
2026/04/13 15:00:52.00,IMU,19.04,-13.67,-1016.60,0.53,0.22,-0.37,82.95,53.55,74.40,25.7
2026/04/13 15:00:52.10,IMU,3.42,-13.67,-1024.41,0.00,2.52,0.34,83.85,52.65,74.25,25.5
2026/04/13 15:00:52.20,IMU,3.42,-18.55,-1017.09,2.62,2.60,-0.56,82.95,54.30,75.15,25.4
2026/04/13 15:00:52.30,IMU,15.63,-12.70,-1002.93,0.40,1.44,-0.82,82.35,53.10,73.50,25.2
2026/04/13 15:00:52.40,IMU,11.72,-9.28,-1018.55,3.27,0.63,1.34,82.50,54.00,74.85,25.4
2026/04/13 15:00:52.50,IMU,18.07,-15.63,-1012.21,2.31,1.69,-0.17,83.10,52.20,73.95,25.4
2026/04/13 15:00:52.60,IMU,0.00,-16.11,-1020.51,1.95,1.31,-0.42,82.95,54.00,75.15,25.5
2026/04/13 15:00:52.70,IMU,10.74,-21.48,-1026.37,2.05,2.11,-0.70,82.50,53.25,74.10,25.6
2026/04/13 15:00:52.80,IMU,7.81,-20.51,-1014.65,0.83,-0.06,-0.34,83.85,53.10,74.25,25.9
2026/04/13 15:00:52.90,IMU,2.93,-14.65,-1012.21,0.92,0.37,2.19,84.15,53.10,73.50,25.8
2026/04/13 15:00:53.00,IMU,-1.46,-16.11,-1017.58,2.08,2.71,-1.98,82.65,53.85,73.95,25.7
2026/04/13 15:00:53.10,IMU,3.42,-17.09,-1018.07,1.46,2.15,2.18,83.10,52.20,75.75,25.7
2026/04/13 15:00:53.20,IMU,4.88,-1.95,-1022.95,1.56,0.47,1.63,82.95,52.80,73.80,25.6
2026/04/13 15:00:53.30,IMU,16.60,-13.67,-1004.88,0.55,2.76,-0.03,83.25,52.80,75.15,25.5
2026/04/13 15:00:53.40,IMU,11.23,-19.04,-1020.51,0.72,-2.77,-0.01,83.40,53.10,74.25,25.4
2026/04/13 15:00:53.50,IMU,17.09,-4.88,-1021.00,1.26,2.18,1.95,83.70,54.30,74.85,25.5
2026/04/13 15:00:53.60,IMU,9.28,-16.60,-1022.95,-0.11,1.79,-1.93,82.65,53.40,73.95,25.7
2026/04/13 15:00:53.70,IMU,12.70,-16.60,-1010.25,1.21,-0.92,0.93,83.40,51.45,74.70,25.4
2026/04/13 15:00:53.80,IMU,5.86,-30.76,-1016.60,1.21,-0.40,0.11,81.75,53.25,73.80,25.5
2026/04/13 15:00:53.90,IMU,21.00,-12.70,-1016.60,1.82,0.92,-0.26,83.70,53.55,74.40,25.7
2026/04/13 15:00:54.00,IMU,0.00,-18.07,-1004.88,2.63,0.37,1.57,83.10,54.15,73.50,25.7
2026/04/13 15:00:54.10,IMU,17.09,-15.63,-1020.02,-0.48,1.85,-1.76,83.10,53.10,74.25,25.6
2026/04/13 15:00:54.20,IMU,10.74,-12.21,-1020.02,1.02,1.18,0.93,82.05,52.65,74.70,25.4
2026/04/13 15:00:54.30,IMU,16.11,-19.04,-1023.44,1.44,-1.66,2.66,82.95,52.80,74.40,25.4
2026/04/13 15:00:54.40,IMU,-4.39,-15.63,-1029.30,1.97,1.15,-0.98,82.20,52.80,73.80,25.8
2026/04/13 15:00:54.50,IMU,7.81,-6.84,-1006.84,0.72,0.62,0.21,82.35,53.85,74.70,25.4
2026/04/13 15:00:54.60,IMU,10.74,-17.09,-1014.16,0.79,0.84,-2.31,83.40,52.65,73.50,25.4
2026/04/13 15:00:54.70,IMU,13.67,-23.93,-1014.65,1.59,0.89,0.01,83.85,54.15,73.50,25.5
2026/04/13 15:00:54.80,IMU,16.60,-13.18,-1012.21,0.54,1.76,2.25,82.65,52.20,74.25,25.4
2026/04/13 15:00:54.90,IMU,9.28,-14.65,-1015.63,2.65,-0.79,0.28,84.15,54.15,73.95,25.8
2026/04/13 15:00:55.01,IMU,12.21,-10.25,-1008.79,2.79,2.82,0.44,82.95,53.25,73.80,25.5
2026/04/13 15:00:55.11,IMU,5.37,-21.48,-1015.63,1.65,3.10,3.49,83.85,53.85,74.25,25.7
2026/04/13 15:00:55.21,IMU,11.72,-9.77,-1021.97,1.14,0.58,0.95,84.00,54.00,74.85,25.4
2026/04/13 15:00:55.31,IMU,19.53,-16.11,-1019.04,1.45,0.97,0.62,83.70,51.30,72.60,25.4
2026/04/13 15:00:55.41,IMU,8.30,-11.23,-1018.07,2.18,-0.76,-0.40,82.50,52.05,74.10,25.4
2026/04/13 15:00:55.51,IMU,8.30,-21.97,-1018.55,1.18,1.05,3.69,83.85,52.20,75.30,25.6
2026/04/13 15:00:55.61,IMU,-3.91,-18.07,-1006.84,0.26,1.11,-0.98,83.40,53.10,75.75,25.4
2026/04/13 15:00:55.71,IMU,21.97,1.95,-1026.37,0.98,0.02,0.45,82.50,53.55,74.40,25.7
2026/04/13 15:00:55.81,IMU,18.55,-23.93,-1014.65,1.37,2.02,-0.63,83.40,53.10,74.25,25.3
2026/04/13 15:00:55.91,IMU,7.32,-21.00,-1022.46,0.98,0.36,-0.82,82.20,53.25,74.40,25.8
2026/04/13 15:00:56.01,IMU,20.02,-2.93,-1009.77,2.37,4.76,-0.42,83.40,53.10,74.70,25.5
2026/04/13 15:00:56.11,IMU,10.25,-20.51,-1012.21,0.88,-1.17,-1.25,82.50,52.80,74.40,25.7
2026/04/13 15:00:56.21,IMU,2.44,-21.97,-1025.88,2.60,2.18,-0.66,83.85,54.15,73.95,25.8
2026/04/13 15:00:56.31,IMU,4.39,-6.84,-1013.67,0.24,2.33,-0.40,82.95,53.25,75.15,25.4
2026/04/13 15:00:56.41,IMU,21.00,-14.16,-1023.44,1.92,0.19,0.30,82.50,53.55,75.60,25.9
2026/04/13 15:00:56.51,IMU,21.00,-10.74,-1006.35,2.53,2.44,-0.92,83.70,53.25,74.40,25.7
2026/04/13 15:00:56.61,IMU,7.32,-8.79,-1009.28,0.35,1.18,1.52,83.70,52.80,74.10,25.6
2026/04/13 15:00:56.71,IMU,9.77,-12.21,-1014.16,1.50,0.59,1.61,82.05,52.65,74.70,25.7
2026/04/13 15:00:56.81,IMU,14.16,-13.67,-1019.04,0.38,1.28,1.04,82.35,53.85,73.20,25.6
2026/04/13 15:00:56.91,IMU,7.81,-9.28,-1020.02,2.40,0.54,1.98,83.25,55.20,75.15,25.4
2026/04/13 15:00:57.01,IMU,2.44,-16.60,-1031.74,3.57,-0.65,0.73,82.35,52.65,74.70,25.7
2026/04/13 15:00:57.11,IMU,3.42,-12.21,-1022.46,0.62,1.76,-0.05,84.30,52.80,74.10,25.7
2026/04/13 15:00:57.21,IMU,13.67,-21.48,-1021.00,-1.36,1.78,0.37,83.40,53.10,73.95,25.7
2026/04/13 15:00:57.31,IMU,12.21,-21.48,-1023.93,1.24,1.48,0.13,83.70,53.55,74.85,25.7
2026/04/13 15:00:57.41,IMU,1.46,-21.00,-1024.41,1.48,2.74,0.85,82.65,53.85,75.30,25.6
2026/04/13 15:00:57.51,IMU,3.42,-22.95,-1022.95,0.59,2.22,-3.84,82.95,54.00,75.15,25.7
2026/04/13 15:00:57.61,IMU,6.35,-17.09,-1016.11,2.20,-1.28,0.54,83.25,52.80,75.90,25.4
2026/04/13 15:00:57.71,IMU,14.16,-22.95,-1002.44,1.46,0.73,0.73,82.95,52.50,75.60,25.7
2026/04/13 15:00:57.81,IMU,4.88,-6.84,-1021.00,1.24,0.36,-0.42,83.25,53.55,74.10,25.5
2026/04/13 15:00:57.91,IMU,8.79,-11.72,-1019.04,0.65,-1.50,1.45,82.65,54.15,73.95,25.4
2026/04/13 15:00:58.01,IMU,7.32,-12.70,-1023.44,0.18,0.41,-0.11,83.70,52.80,74.40,25.6
2026/04/13 15:00:58.11,IMU,2.44,-8.30,-1005.86,1.28,1.23,1.34,83.40,53.85,74.70,25.6
2026/04/13 15:00:58.21,IMU,6.84,-7.32,-1020.51,1.02,1.78,-0.10,83.10,53.85,73.50,25.7
2026/04/13 15:00:58.31,IMU,9.28,-7.32,-1015.63,1.44,-1.39,-0.60,83.70,53.55,75.15,25.6
2026/04/13 15:00:58.41,IMU,21.00,-8.79,-1015.63,1.89,1.07,2.18,82.95,53.55,74.40,25.4
2026/04/13 15:00:58.51,IMU,5.37,-21.48,-1021.97,1.93,-1.11,-0.28,82.50,53.25,75.60,25.6
2026/04/13 15:00:58.61,IMU,23.44,-3.42,-1016.60,1.79,1.16,0.00,81.45,51.30,76.95,25.9
2026/04/13 15:00:58.71,IMU,-0.49,-9.77,-1022.95,1.34,1.45,-0.22,84.30,53.25,75.60,25.5
2026/04/13 15:00:58.81,IMU,12.70,-15.63,-1025.39,2.85,2.37,-0.63,83.40,54.60,75.00,25.4
2026/04/13 15:00:58.91,IMU,15.14,-9.28,-1007.81,3.27,1.19,1.26,83.70,52.80,74.10,25.2
2026/04/13 15:00:59.01,IMU,17.58,-9.77,-1014.16,0.43,0.10,-1.16,84.60,53.40,75.30,25.4
2026/04/13 15:00:59.11,IMU,3.42,-20.51,-1011.23,-0.41,1.18,-0.60,83.25,52.80,73.35,25.6
2026/04/13 15:00:59.21,IMU,7.81,-27.83,-1010.25,0.20,-1.28,-0.26,84.30,54.30,75.60,25.8
2026/04/13 15:00:59.31,IMU,5.86,-17.09,-1006.35,1.17,0.73,0.45,82.50,53.55,74.85,25.7
2026/04/13 15:00:59.41,IMU,8.79,-13.67,-1009.77,1.73,0.45,-0.14,83.10,52.65,74.70,25.6
2026/04/13 15:00:59.51,IMU,12.70,-17.09,-1016.11,0.87,1.64,-0.06,82.20,53.25,74.40,25.6
2026/04/13 15:00:59.62,IMU,21.00,-10.25,-1016.11,0.44,-0.40,0.05,80.10,50.40,79.65,25.4
2026/04/13 15:00:59.72,IMU,19.53,-18.07,-1012.70,3.31,-0.92,-0.15,82.65,52.65,74.25,25.7
2026/04/13 15:00:59.82,IMU,0.98,-20.02,-1016.60,1.48,2.85,1.97,82.95,52.80,73.80,25.7
2026/04/13 15:00:59.92,IMU,2.93,-2.44,-1016.11,0.28,0.85,0.54,84.15,53.40,74.25,25.7
2026/04/13 15:01:00.02,IMU,11.72,-13.67,-1005.37,1.54,0.24,0.17,82.20,54.00,74.10,25.5
2026/04/13 15:01:00.12,IMU,11.72,-9.28,-1012.70,0.04,1.36,-1.40,83.25,53.25,74.10,25.3
2026/04/13 15:01:00.22,IMU,0.49,-19.04,-1024.90,1.20,1.87,-1.41,83.10,53.40,74.25,25.4
2026/04/13 15:01:00.32,IMU,5.37,-15.14,-1025.39,3.31,0.44,-0.39,84.00,54.30,74.85,25.7
2026/04/13 15:01:00.42,IMU,10.25,-5.86,-1014.16,0.31,-0.27,1.77,83.10,53.85,74.70,25.6
2026/04/13 15:01:00.52,IMU,16.60,-22.46,-1016.11,1.89,-0.11,1.73,83.10,53.40,75.00,25.7
2026/04/13 15:01:00.63,IMU,0.49,-10.74,-1013.67,1.63,1.80,-0.91,78.60,49.95,79.65,25.7
2026/04/13 15:01:00.73,IMU,6.84,-14.65,-1012.21,1.79,1.24,0.91,83.10,53.85,73.95,25.7
2026/04/13 15:01:00.83,IMU,6.35,-6.84,-1014.16,0.92,-1.50,-0.27,84.15,52.20,75.30,25.5
2026/04/13 15:01:00.93,IMU,20.51,-9.77,-1017.58,1.47,-0.64,-2.89,83.70,53.25,73.35,25.7
2026/04/13 15:01:01.03,IMU,1.95,-7.81,-1014.65,-0.54,2.64,1.21,82.95,53.55,73.80,25.4
2026/04/13 15:01:01.13,IMU,11.23,-13.67,-1009.28,1.95,0.92,0.69,82.05,53.85,75.00,25.7
2026/04/13 15:01:01.23,IMU,7.81,-9.77,-1013.67,-0.11,0.95,-0.90,84.15,54.90,74.25,25.4
2026/04/13 15:01:01.33,IMU,1.46,-14.16,-1022.95,1.67,1.10,-0.05,83.25,52.80,72.60,25.7
2026/04/13 15:01:01.43,IMU,-3.42,-7.32,-1009.28,1.90,1.02,1.08,83.40,54.60,74.25,25.7
2026/04/13 15:01:01.53,IMU,5.86,-9.77,-1022.95,2.44,0.73,1.44,83.10,54.15,76.80,25.4
2026/04/13 15:01:01.63,IMU,15.63,-16.60,-1013.67,-0.80,0.49,-0.29,82.35,54.60,75.75,25.7
2026/04/13 15:01:01.73,IMU,11.72,-19.53,-1010.74,2.34,1.85,-1.47,82.50,52.05,74.85,25.7
2026/04/13 15:01:01.83,IMU,10.74,-13.67,-1017.58,1.79,0.52,-0.74,82.95,53.25,75.15,25.5
2026/04/13 15:01:01.93,IMU,8.30,-15.14,-1023.44,1.29,2.24,-2.90,83.25,54.30,74.40,25.5
2026/04/13 15:01:02.03,IMU,17.58,-9.28,-1008.30,1.34,1.45,1.85,82.95,52.80,74.85,25.7
2026/04/13 15:01:02.13,IMU,17.09,-14.65,-1008.30,1.24,1.56,1.69,81.75,52.80,74.10,25.3
2026/04/13 15:01:02.23,IMU,10.25,-32.23,-1019.53,0.44,-0.95,0.76,82.95,51.30,74.10,25.6
2026/04/13 15:01:02.33,IMU,20.02,-22.95,-1026.37,2.40,0.58,-0.23,83.70,52.05,74.85,25.6
2026/04/13 15:01:02.43,IMU,8.79,-14.65,-1009.77,0.57,2.76,-0.51,83.25,52.80,75.15,25.7
2026/04/13 15:01:02.53,IMU,12.21,-24.41,-1005.37,0.26,0.95,-1.47,82.50,53.25,74.40,25.4
2026/04/13 15:01:02.63,IMU,9.77,-24.90,-1028.32,0.56,2.51,1.01,82.50,53.55,75.15,25.7
2026/04/13 15:01:02.73,IMU,9.28,-24.90,-1013.18,2.15,0.46,0.32,82.95,52.50,74.10,25.7
2026/04/13 15:01:02.83,IMU,1.95,-13.18,-1014.65,0.50,0.38,1.17,82.35,52.20,74.25,25.3
2026/04/13 15:01:02.93,IMU,7.81,-16.60,-1014.65,0.70,-0.71,-0.05,84.15,53.85,74.70,25.4
2026/04/13 15:01:03.03,IMU,18.55,-25.88,-1009.28,2.22,0.30,-0.06,82.35,53.85,75.00,25.7
2026/04/13 15:01:03.13,IMU,2.44,-17.58,-1021.00,1.31,2.11,0.75,82.20,53.55,74.85,25.4
2026/04/13 15:01:03.23,IMU,11.23,-14.65,-1013.18,0.13,0.31,-0.95,83.40,52.65,75.00,25.4
2026/04/13 15:01:03.33,IMU,15.63,-16.60,-1021.00,2.21,-0.62,1.44,84.15,53.85,75.30,25.4
2026/04/13 15:01:03.43,IMU,3.91,-3.42,-1018.55,1.58,0.39,1.08,82.50,53.25,75.15,25.4
2026/04/13 15:01:03.53,IMU,11.72,-24.41,-1022.46,1.49,0.73,2.45,83.40,53.85,73.95,25.4
2026/04/13 15:01:03.63,IMU,9.28,-30.76,-1015.63,-0.13,0.34,-1.18,84.15,53.40,75.75,25.7
2026/04/13 15:01:03.73,IMU,20.51,-16.11,-1018.07,0.68,3.98,-1.15,84.15,54.15,74.25,25.7
2026/04/13 15:01:03.83,IMU,16.11,-21.48,-1020.51,0.39,0.61,-1.18,84.60,54.15,74.25,25.6
2026/04/13 15:01:03.93,IMU,21.00,-24.90,-1000.98,1.90,-0.13,2.08,83.25,54.00,74.10,25.7
2026/04/13 15:01:04.03,IMU,13.67,-11.72,-1009.28,2.05,3.05,1.01,83.85,53.10,73.95,25.6
2026/04/13 15:01:04.13,IMU,13.18,-10.25,-1012.21,0.29,3.28,1.31,82.05,52.20,75.30,25.8
2026/04/13 15:01:04.23,IMU,-2.93,-9.28,-1012.70,2.11,2.77,-1.15,84.00,52.05,75.15,25.7
2026/04/13 15:01:04.33,IMU,-3.91,-14.65,-1016.60,1.96,2.32,3.94,83.40,53.10,74.25,25.7
2026/04/13 15:01:04.43,IMU,12.21,-17.58,-1002.93,1.43,0.58,1.39,82.20,52.05,74.85,25.5
2026/04/13 15:01:04.53,IMU,12.21,-17.58,-1007.32,0.16,0.34,-0.30,83.70,54.30,74.10,25.3
2026/04/13 15:01:04.63,IMU,7.81,-21.00,-1016.11,0.50,0.39,-3.31,82.20,53.25,74.10,25.4
2026/04/13 15:01:04.73,IMU,13.67,-21.00,-1014.16,0.41,2.89,0.76,83.25,52.05,74.10,25.5
2026/04/13 15:01:04.83,IMU,12.70,-15.14,-1019.04,1.12,-0.31,0.76,82.35,53.85,73.50,25.4
2026/04/13 15:01:04.93,IMU,21.97,-9.77,-1018.55,2.41,1.14,-0.34,83.40,51.45,75.75,25.4
2026/04/13 15:01:05.03,IMU,14.16,-0.49,-1027.34,-0.68,1.98,-0.50,83.70,52.50,72.60,25.7
2026/04/13 15:01:05.14,IMU,21.00,-2.44,-1018.55,1.08,1.15,1.11,84.30,53.25,75.60,25.5
2026/04/13 15:01:05.24,IMU,-7.81,-10.74,-1020.51,2.19,-0.46,-0.15,83.10,53.40,75.30,25.4
2026/04/13 15:01:05.34,IMU,-3.91,-19.04,-1011.72,1.14,2.99,0.91,82.35,52.20,75.30,25.6
2026/04/13 15:01:05.44,IMU,15.14,-13.67,-1030.27,1.55,0.47,1.56,83.40,53.10,75.00,25.6
2026/04/13 15:01:05.54,IMU,11.72,-18.55,-1018.55,2.15,0.92,0.98,83.70,53.25,74.40,25.5
2026/04/13 15:01:05.64,IMU,18.55,-1.95,-1014.16,1.87,-0.10,-0.37,83.10,52.65,75.00,25.4
2026/04/13 15:01:05.74,IMU,11.23,-18.07,-1014.16,3.66,0.58,1.66,82.20,53.55,74.85,25.7
2026/04/13 15:01:05.84,IMU,12.21,-6.35,-1013.18,-0.47,0.43,0.40,82.35,53.85,73.50,25.8
2026/04/13 15:01:05.94,IMU,8.30,-10.74,-1008.79,1.38,3.56,-0.11,82.20,52.80,74.10,25.7
2026/04/13 15:01:06.04,IMU,1.95,-13.18,-1014.16,0.01,0.23,-0.50,82.35,51.90,73.95,25.4
2026/04/13 15:01:06.14,IMU,13.67,-14.65,-1012.70,2.34,-0.94,3.21,82.95,53.25,74.40,25.6
2026/04/13 15:01:06.24,IMU,10.74,-13.67,-1032.23,-0.21,-0.24,1.07,82.50,53.25,74.85,25.6
2026/04/13 15:01:06.34,IMU,4.39,-21.48,-1017.09,1.31,2.27,-0.79,83.70,52.80,74.10,25.6
2026/04/13 15:01:06.44,IMU,6.35,-6.35,-1013.67,2.28,-0.92,-0.47,83.70,53.55,74.10,25.4
2026/04/13 15:01:06.54,IMU,14.65,-23.93,-1019.53,1.15,0.52,-0.50,82.20,52.80,73.35,25.8
2026/04/13 15:01:06.64,IMU,13.18,-21.00,-1019.53,1.11,1.52,1.56,82.95,53.25,73.80,25.4
2026/04/13 15:01:06.74,IMU,16.60,-18.07,-1022.46,0.27,2.15,-0.84,82.95,52.80,74.40,25.7
2026/04/13 15:01:06.84,IMU,9.28,-8.79,-1013.67,1.79,1.37,-0.92,82.50,53.25,73.80,25.6
2026/04/13 15:01:06.94,IMU,15.63,-11.72,-1013.18,0.34,0.67,3.03,82.65,53.40,73.95,25.5
2026/04/13 15:01:07.04,IMU,7.32,-13.67,-1005.86,1.76,1.66,0.18,82.95,52.80,74.40,25.7
2026/04/13 15:01:07.14,IMU,1.95,-11.23,-1017.09,0.50,2.44,0.92,83.10,54.15,75.30,25.6
2026/04/13 15:01:07.24,IMU,10.74,-14.65,-1020.51,-0.05,-0.05,1.44,82.20,52.80,74.85,25.7
2026/04/13 15:01:07.34,IMU,9.28,-20.02,-1021.48,1.76,0.11,-1.14,84.15,53.10,72.90,25.8
2026/04/13 15:01:07.44,IMU,19.04,-14.16,-1005.86,1.82,1.37,-2.02,82.35,53.85,75.30,25.7
2026/04/13 15:01:07.54,IMU,9.77,-13.67,-1022.95,0.54,0.89,1.35,83.25,54.00,73.80,25.4
2026/04/13 15:01:07.64,IMU,3.42,-5.37,-1010.74,0.37,-0.05,-1.19,82.95,52.80,74.10,25.7
2026/04/13 15:01:07.74,IMU,12.70,-25.39,-1021.48,0.82,0.34,0.53,79.35,50.40,77.55,25.6
2026/04/13 15:01:07.84,IMU,24.41,-4.39,-1012.70,0.34,2.79,-1.44,82.65,52.65,75.00,25.4
2026/04/13 15:01:07.94,IMU,27.83,-10.25,-1006.84,0.88,2.13,1.20,82.95,53.55,73.05,25.6
2026/04/13 15:01:08.04,IMU,7.81,-19.04,-1017.09,0.00,2.44,0.89,82.95,53.55,75.15,25.4
2026/04/13 15:01:08.14,IMU,8.79,-8.79,-1008.79,0.30,1.58,1.60,83.25,53.55,74.40,25.8
2026/04/13 15:01:08.24,IMU,14.16,-28.81,-1014.16,2.36,1.91,1.67,81.45,52.80,75.60,25.7
2026/04/13 15:01:08.34,IMU,3.91,-5.86,-1013.18,0.05,2.27,-2.23,83.25,52.05,74.40,25.2
2026/04/13 15:01:08.44,IMU,4.88,-18.07,-1018.55,1.24,-2.24,-2.37,82.95,52.80,73.80,25.7
2026/04/13 15:01:08.54,IMU,10.74,-11.72,-1021.97,1.47,1.36,-0.44,84.90,53.40,73.50,25.5
2026/04/13 15:01:08.64,IMU,3.91,-14.16,-1025.88,0.69,-0.56,-0.52,82.50,53.25,73.35,25.6
2026/04/13 15:01:08.74,IMU,11.72,-23.44,-1021.00,0.44,1.44,0.47,82.50,51.00,77.40,25.7
2026/04/13 15:01:08.84,IMU,18.55,-11.23,-1012.70,0.78,0.56,1.13,83.85,53.85,73.50,25.5
2026/04/13 15:01:08.94,IMU,21.97,-29.30,-1021.00,2.34,1.09,0.89,83.25,53.55,75.15,25.8
2026/04/13 15:01:09.04,IMU,2.93,-9.77,-1021.97,1.95,-0.09,1.21,82.35,54.60,75.30,25.5
2026/04/13 15:01:09.14,IMU,11.72,-2.44,-1017.58,1.63,0.38,-0.47,82.65,53.85,73.50,25.8
2026/04/13 15:01:09.24,IMU,12.21,-20.51,-1021.48,1.98,2.14,0.51,82.50,54.00,74.40,25.6
2026/04/13 15:01:09.34,IMU,11.72,-20.02,-1015.14,1.47,2.86,1.92,84.60,51.90,74.70,25.7
2026/04/13 15:01:09.44,IMU,6.84,-25.39,-1012.70,1.08,-0.37,1.38,84.60,51.90,73.20,25.3
2026/04/13 15:01:09.55,IMU,0.98,-26.37,-1015.14,0.22,-0.22,-1.08,83.25,53.55,74.40,25.6
2026/04/13 15:01:09.65,IMU,1.95,-35.64,-1021.48,2.26,1.79,1.14,83.10,54.15,74.25,25.6
2026/04/13 15:01:09.75,IMU,19.53,-9.28,-1020.02,2.79,3.46,1.91,83.10,52.20,75.75,25.9
2026/04/13 15:01:09.85,IMU,15.63,-12.70,-1015.14,2.23,1.89,1.24,82.65,53.10,75.00,25.7
2026/04/13 15:01:09.95,IMU,13.18,-14.16,-1021.00,0.07,0.95,0.41,82.50,52.50,73.35,25.4
2026/04/13 15:01:10.05,IMU,6.35,-10.25,-1029.30,1.27,0.33,-0.17,82.35,53.10,76.50,25.4
2026/04/13 15:01:10.16,IMU,0.98,-15.63,-1017.58,1.14,0.99,-0.71,83.25,54.00,74.85,25.7
2026/04/13 15:01:10.26,IMU,11.23,-11.23,-1013.18,0.56,1.05,-0.14,84.75,52.80,75.90,25.7
2026/04/13 15:01:10.36,IMU,8.79,-21.00,-1018.07,0.11,1.57,-1.96,84.30,53.55,74.40,25.7
2026/04/13 15:01:10.46,IMU,20.51,-13.67,-1010.74,1.42,2.82,-0.37,82.50,53.55,75.15,25.4
2026/04/13 15:01:10.56,IMU,15.14,-11.72,-1009.28,0.38,0.92,2.69,83.85,53.10,76.05,25.8
2026/04/13 15:01:10.66,IMU,14.65,-14.16,-1028.81,2.32,0.00,1.50,83.85,54.90,74.25,25.6
2026/04/13 15:01:10.76,IMU,10.74,-18.55,-1001.95,0.71,-0.64,1.40,83.25,54.30,73.35,25.6
2026/04/13 15:01:10.86,IMU,7.81,-10.74,-1021.00,0.59,1.69,2.23,82.35,53.40,74.25,25.7
2026/04/13 15:01:10.96,IMU,14.16,-19.04,-1017.09,2.21,1.00,-1.52,83.10,54.15,74.25,25.7
2026/04/13 15:01:11.06,IMU,-4.39,-17.09,-1031.74,1.73,1.17,-1.79,82.65,53.10,74.25,25.7
2026/04/13 15:01:11.16,IMU,-1.46,-12.21,-1015.14,2.08,1.08,2.92,82.05,53.85,73.20,25.6
2026/04/13 15:01:11.26,IMU,18.07,-11.23,-1005.86,-0.30,2.12,-1.06,82.50,53.55,74.85,25.6
2026/04/13 15:01:11.36,IMU,27.83,-1.95,-1013.18,2.86,-0.39,2.46,83.10,53.10,74.25,25.6
2026/04/13 15:01:11.46,IMU,12.70,-6.35,-1020.51,1.18,1.46,0.31,83.70,54.30,74.85,25.6
2026/04/13 15:01:11.56,IMU,15.14,-21.00,-1017.58,1.53,0.99,0.16,83.10,53.10,73.95,25.5
2026/04/13 15:01:11.66,IMU,15.14,-24.41,-1016.60,2.66,0.88,1.22,82.95,53.55,73.35,25.6
2026/04/13 15:01:11.76,IMU,19.53,-12.21,-1018.07,3.76,1.70,1.17,82.65,54.15,73.20,25.7
2026/04/13 15:01:11.86,IMU,9.28,-19.53,-1018.07,0.18,1.23,-1.44,82.65,53.40,76.05,25.7
2026/04/13 15:01:11.96,IMU,19.04,-15.14,-1011.23,1.53,-0.93,1.02,82.20,54.30,74.85,25.6
2026/04/13 15:01:12.06,IMU,2.93,-14.16,-1019.04,1.37,1.24,0.76,82.20,52.80,75.15,25.6
2026/04/13 15:01:12.16,IMU,9.77,-17.58,-1010.25,2.54,-0.11,1.47,82.95,53.55,74.10,25.6
2026/04/13 15:01:12.26,IMU,9.77,-18.55,-1022.95,0.01,0.55,0.44,84.00,52.80,74.10,25.7
2026/04/13 15:01:12.36,IMU,14.16,-17.58,-1012.70,0.74,1.16,-1.82,83.10,53.40,75.00,25.3
2026/04/13 15:01:12.46,IMU,11.72,-16.11,-1010.25,1.07,2.35,0.29,82.95,52.80,74.40,25.6
2026/04/13 15:01:12.56,IMU,5.37,-14.65,-1016.60,-0.42,0.89,0.23,82.65,54.60,74.25,25.7
2026/04/13 15:01:12.66,IMU,-1.95,-11.23,-1017.58,1.96,-0.80,0.06,82.50,53.25,74.40,25.7
2026/04/13 15:01:12.76,IMU,11.72,-18.55,-1016.60,1.66,1.55,-1.09,82.95,53.25,74.40,25.4
2026/04/13 15:01:12.86,IMU,6.84,-12.21,-1018.55,1.86,2.41,2.24,83.25,53.55,74.85,25.7
2026/04/13 15:01:12.96,IMU,5.86,-27.34,-1013.67,0.00,1.60,-0.24,83.10,53.85,74.70,25.9
2026/04/13 15:01:13.06,IMU,4.88,-14.16,-1014.65,0.61,0.88,0.79,84.00,53.55,74.40,25.7
2026/04/13 15:01:13.16,IMU,7.81,-15.14,-1012.21,0.95,2.53,1.66,83.25,54.00,74.40,25.3
2026/04/13 15:01:13.26,IMU,2.44,-3.91,-1023.44,1.90,0.47,0.02,83.85,52.20,75.00,25.7
2026/04/13 15:01:13.36,IMU,3.91,-13.67,-1021.00,2.08,2.04,-0.79,83.70,51.30,74.40,25.7
2026/04/13 15:01:13.46,IMU,1.46,-7.32,-1018.55,0.72,-0.07,-0.22,82.65,53.40,74.25,25.7
2026/04/13 15:01:13.56,IMU,9.28,-7.32,-1021.48,0.67,-0.09,0.66,82.65,54.90,74.70,25.3
2026/04/13 15:01:13.66,IMU,15.14,-10.25,-1017.58,2.43,2.47,0.73,83.25,53.25,75.15,25.5
2026/04/13 15:01:13.76,IMU,16.60,-10.74,-1026.37,0.11,2.44,1.64,83.25,52.50,74.10,25.7
2026/04/13 15:01:13.86,IMU,1.95,-23.44,-1009.77,-0.37,1.46,0.36,82.65,52.65,74.25,25.4
2026/04/13 15:01:13.96,IMU,5.37,-21.97,-1011.72,1.40,-0.80,1.44,83.85,53.85,73.50,25.6
2026/04/13 15:01:14.06,IMU,16.11,-20.02,-1028.81,0.69,1.41,-1.86,84.90,53.40,73.50,25.4
2026/04/13 15:01:14.16,IMU,8.79,-16.11,-1018.07,3.24,0.75,0.00,83.10,53.40,73.95,25.7
2026/04/13 15:01:14.26,IMU,9.77,-18.07,-1016.11,2.38,0.85,1.22,82.95,54.30,74.10,25.4
2026/04/13 15:01:14.36,IMU,7.81,-22.46,-1013.67,2.34,-0.14,-0.04,83.25,53.55,73.05,25.7
2026/04/13 15:01:14.46,IMU,3.42,-21.97,-1006.84,1.78,1.39,-0.82,83.70,53.25,74.85,25.7
2026/04/13 15:01:14.56,IMU,17.09,-23.93,-1024.90,2.63,2.85,1.40,82.50,52.80,74.40,25.7
2026/04/13 15:01:14.67,IMU,9.77,-8.79,-1031.25,0.17,1.08,-1.25,83.85,53.40,75.00,25.4
2026/04/13 15:01:14.77,IMU,7.81,-16.60,-1025.88,0.85,3.28,0.24,83.25,53.25,74.40,25.8
2026/04/13 15:01:14.87,IMU,8.79,-17.58,-1019.04,1.87,0.44,3.59,81.75,53.55,74.10,25.5
2026/04/13 15:01:14.97,IMU,27.83,-7.32,-1023.93,-0.24,2.05,0.84,82.35,54.60,73.50,25.4
2026/04/13 15:01:15.07,IMU,17.58,-12.70,-1007.81,3.17,2.07,-0.55,82.95,52.50,74.40,25.7
2026/04/13 15:01:15.17,IMU,18.07,-21.48,-1014.65,-1.03,1.15,0.69,81.30,53.10,73.95,25.8
2026/04/13 15:01:15.27,IMU,12.21,-12.70,-1008.30,0.93,0.92,-0.40,82.65,53.40,75.00,25.5
2026/04/13 15:01:15.37,IMU,10.74,-19.53,-1015.14,0.96,1.58,0.40,83.40,54.15,74.25,25.7
2026/04/13 15:01:15.47,IMU,9.28,-7.81,-1008.79,1.49,4.38,1.84,82.95,52.05,74.10,25.7
2026/04/13 15:01:15.57,IMU,4.88,-16.60,-1022.95,-0.81,0.88,-0.80,83.10,53.10,73.50,25.6
2026/04/13 15:01:15.67,IMU,-1.95,-18.55,-1014.16,1.35,0.57,2.32,82.50,51.75,73.80,25.5
2026/04/13 15:01:15.77,IMU,10.25,-23.44,-1017.09,2.33,-0.49,0.92,84.15,53.10,74.25,25.5
2026/04/13 15:01:15.87,IMU,17.09,-16.60,-1023.44,0.78,1.72,-0.27,83.25,51.75,74.40,25.7
2026/04/13 15:01:15.97,IMU,13.67,-7.81,-1025.88,1.18,2.18,1.75,83.85,53.10,74.25,25.4
2026/04/13 15:01:16.07,IMU,2.44,-12.21,-1012.70,1.77,1.03,-0.85,84.60,53.10,74.70,25.6
2026/04/13 15:01:16.17,IMU,4.88,-8.30,-1007.81,2.38,4.08,-1.35,83.85,52.20,75.00,25.7
2026/04/13 15:01:16.27,IMU,18.55,-19.04,-1026.37,0.08,2.27,-1.56,84.00,52.50,74.10,25.4
2026/04/13 15:01:16.39,IMU,8.79,-3.42,-1018.55,1.37,2.37,1.18,83.85,53.10,73.95,25.5
2026/04/13 15:01:16.49,IMU,-2.44,-11.23,-1030.27,-0.26,-0.33,-3.09,82.95,54.30,74.40,25.8
2026/04/13 15:01:16.59,IMU,7.32,-17.58,-1018.55,-0.03,1.25,1.01,84.00,52.80,74.85,25.5
2026/04/13 15:01:16.69,IMU,24.90,-31.74,-1008.79,1.15,1.02,1.16,84.30,52.80,74.10,25.7
2026/04/13 15:01:16.80,IMU,8.30,-16.60,-1012.70,1.98,2.92,-0.26,83.25,52.50,74.40,25.7
2026/04/13 15:01:16.90,IMU,4.88,-10.74,-1020.02,1.74,0.76,-1.09,84.60,51.90,74.70,25.5
2026/04/13 15:01:17.00,IMU,12.70,-30.76,-1009.77,1.93,3.00,1.95,83.25,53.55,74.40,25.8
2026/04/13 15:01:17.10,IMU,11.23,-6.35,-1020.51,0.75,0.35,1.27,83.85,53.85,74.25,25.9
2026/04/13 15:01:17.20,IMU,12.21,-17.09,-1019.53,-0.47,1.56,2.10,83.70,53.55,73.80,25.8
2026/04/13 15:01:17.30,IMU,11.72,-17.58,-1024.90,1.27,-0.58,-0.04,84.75,52.50,74.85,25.5
2026/04/13 15:01:17.40,IMU,7.32,-14.16,-1021.97,2.12,1.02,0.47,83.10,53.10,72.90,25.4
2026/04/13 15:01:17.50,IMU,15.63,-17.09,-1016.60,0.99,1.83,1.69,84.60,53.40,73.95,25.7
2026/04/13 15:01:17.60,IMU,14.65,-14.16,-1019.53,0.89,-0.70,2.32,83.40,53.10,75.00,25.8
2026/04/13 15:01:17.70,IMU,2.44,-22.95,-1015.14,1.43,-0.54,0.52,83.25,52.50,74.85,25.7
2026/04/13 15:01:17.80,IMU,11.72,-12.70,-1012.21,0.16,2.01,-0.73,84.00,52.80,72.60,25.8
