Timestamp,Sensor,AccX,AccY,AccZ,GyrX,GyrY,GyrZ,MagX,MagY,MagZ,Temp
2026/04/13 15:08:30.00,IMU,-1009.77,-17.09,-68.85,2.20,2.44,2.18,84.75,10.05,38.40,26.8
2026/04/13 15:08:30.10,IMU,-1005.37,-10.74,-61.04,1.58,0.85,1.79,85.35,10.20,37.05,26.6
2026/04/13 15:08:30.20,IMU,-995.61,-15.14,-62.50,3.19,0.07,2.44,85.50,12.00,38.40,26.4
2026/04/13 15:08:30.30,IMU,-1005.86,-3.42,-65.43,1.48,0.69,1.91,83.70,10.50,36.90,26.5
2026/04/13 15:08:30.40,IMU,-987.30,-8.30,-60.55,0.23,1.61,0.91,84.15,10.65,38.85,26.6
2026/04/13 15:08:30.50,IMU,-1001.95,-2.93,-56.64,-0.05,1.63,-0.04,85.35,10.20,37.50,26.6
2026/04/13 15:08:30.60,IMU,-987.79,-12.21,-59.57,2.63,1.98,0.18,83.85,11.70,37.80,26.4
2026/04/13 15:08:30.70,IMU,-999.02,-10.25,-60.55,3.97,0.88,-0.78,85.05,11.25,38.40,26.5
2026/04/13 15:08:30.80,IMU,-1005.86,1.95,-61.52,1.11,0.70,2.20,85.05,9.60,37.65,26.7
2026/04/13 15:08:30.90,IMU,-991.21,-16.60,-64.45,1.27,2.22,0.99,84.90,10.95,39.60,26.5
2026/04/13 15:08:31.00,IMU,-1009.77,0.98,-66.89,1.02,2.79,0.12,83.85,11.40,37.80,26.5
2026/04/13 15:08:31.10,IMU,-1002.44,-4.39,-59.57,1.26,-1.32,-1.29,84.75,10.80,37.65,26.5
2026/04/13 15:08:31.20,IMU,-1006.35,-3.42,-59.57,-0.82,0.15,1.83,85.80,10.05,36.90,26.6
2026/04/13 15:08:31.30,IMU,-1020.02,-20.51,-55.66,0.41,1.20,1.79,85.50,11.25,37.35,26.7
2026/04/13 15:08:31.40,IMU,-995.61,-13.18,-54.20,2.74,0.51,0.51,86.25,8.10,37.95,26.5
2026/04/13 15:08:31.50,IMU,-1010.25,-9.77,-65.43,1.66,3.56,0.72,84.60,10.65,38.55,26.4
2026/04/13 15:08:31.61,IMU,-989.26,1.46,-74.22,1.22,0.82,2.24,84.60,9.15,37.50,26.5
2026/04/13 15:08:31.71,IMU,-1003.42,-18.55,-68.36,1.31,0.89,0.97,84.30,10.05,37.65,26.4
2026/04/13 15:08:31.81,IMU,-1007.32,-8.79,-66.41,0.53,0.74,-2.28,85.05,9.30,37.35,26.6
2026/04/13 15:08:31.91,IMU,-1009.77,-3.42,-61.04,-0.06,1.69,0.73,85.05,10.05,37.65,26.8
2026/04/13 15:08:32.01,IMU,-997.07,-11.23,-62.01,2.28,0.54,-1.18,85.35,10.65,37.50,26.5
2026/04/13 15:08:32.11,IMU,-994.14,-9.28,-62.50,2.38,0.82,0.02,85.65,10.95,37.05,26.5
2026/04/13 15:08:32.21,IMU,-991.21,2.93,-64.45,-0.06,3.13,-0.79,84.60,10.65,37.80,26.8
2026/04/13 15:08:32.31,IMU,-1005.37,5.37,-58.59,1.11,0.12,-0.82,85.05,10.80,37.65,26.4
2026/04/13 15:08:32.41,IMU,-986.82,-3.42,-69.34,1.85,3.43,1.18,86.40,10.95,38.25,26.4
2026/04/13 15:08:32.51,IMU,-995.61,-9.28,-55.18,1.05,1.51,1.11,84.30,8.85,36.60,26.4
2026/04/13 15:08:32.61,IMU,-998.05,-8.30,-70.31,1.32,0.51,-0.99,85.35,10.20,37.50,26.7
2026/04/13 15:08:32.71,IMU,-1003.91,-4.88,-58.11,-2.14,2.11,-1.07,84.75,12.00,36.90,26.6
2026/04/13 15:08:32.81,IMU,-999.02,-1.95,-58.59,0.56,1.89,0.95,85.80,10.50,36.90,26.6
2026/04/13 15:08:32.91,IMU,-1004.39,-3.91,-58.11,2.16,2.31,-0.03,84.00,10.50,36.60,26.4
2026/04/13 15:08:33.01,IMU,-1000.98,-18.55,-72.27,1.29,1.46,-1.85,84.60,10.20,37.05,26.8
2026/04/13 15:08:33.11,IMU,-1003.42,-12.70,-58.59,1.69,-1.72,0.42,85.80,10.05,38.40,26.7
2026/04/13 15:08:33.21,IMU,-1001.95,2.44,-59.08,4.08,2.80,-0.01,85.05,11.25,37.95,26.4
2026/04/13 15:08:33.31,IMU,-995.61,-10.74,-47.85,-0.80,0.47,2.26,84.60,10.20,36.45,26.9
2026/04/13 15:08:33.41,IMU,-1004.88,-7.81,-64.94,0.28,1.15,-0.69,84.90,11.40,38.85,26.8
2026/04/13 15:08:33.51,IMU,-1011.23,2.93,-54.69,1.94,1.37,1.66,85.80,11.25,38.40,26.6
2026/04/13 15:08:33.61,IMU,-1014.65,-13.18,-53.22,1.82,2.41,-1.97,86.70,10.20,36.75,26.6
2026/04/13 15:08:33.71,IMU,-999.51,-12.70,-60.55,2.86,2.33,-0.28,85.35,11.70,38.25,26.7
2026/04/13 15:08:33.81,IMU,-1003.91,-18.55,-59.08,0.21,1.70,1.05,83.10,10.20,37.05,26.4
2026/04/13 15:08:33.91,IMU,-1001.46,-15.14,-46.88,-0.50,0.76,2.18,86.25,11.25,37.65,26.7
2026/04/13 15:08:34.01,IMU,-1001.46,-11.72,-58.59,2.87,0.07,2.03,85.35,11.70,36.75,26.7
2026/04/13 15:08:34.11,IMU,-1006.35,-10.74,-55.66,2.18,0.89,-0.01,85.80,9.30,38.40,26.3
2026/04/13 15:08:34.21,IMU,-1000.49,-7.32,-54.69,1.49,0.00,0.45,83.85,10.95,38.25,26.6
2026/04/13 15:08:34.31,IMU,-1000.00,-21.97,-68.85,3.55,1.37,2.13,84.90,10.65,37.50,26.8
2026/04/13 15:08:34.41,IMU,-1006.84,-11.72,-62.99,1.92,0.76,-0.88,85.80,10.05,36.90,26.3
2026/04/13 15:08:34.51,IMU,-1009.77,-5.86,-52.25,1.63,0.69,-0.08,84.15,12.15,37.05,26.7
2026/04/13 15:08:34.61,IMU,-1001.46,-6.35,-67.87,0.90,1.11,1.63,84.75,10.80,37.95,26.6
2026/04/13 15:08:34.71,IMU,-1002.44,-21.97,-64.45,1.31,1.77,2.59,86.55,10.05,37.65,26.4
2026/04/13 15:08:34.81,IMU,-1010.25,-12.21,-58.11,2.10,1.63,2.21,85.80,10.80,37.65,26.6
2026/04/13 15:08:34.91,IMU,-1010.74,-11.72,-59.57,2.18,2.61,0.92,86.10,10.20,38.25,26.8
2026/04/13 15:08:35.01,IMU,-1004.39,-6.84,-61.52,1.01,2.85,2.89,83.70,10.50,37.35,26.5
2026/04/13 15:08:35.11,IMU,-997.56,-7.32,-62.50,-0.52,2.49,0.25,84.60,9.90,37.05,26.8
2026/04/13 15:08:35.21,IMU,-996.58,-13.67,-73.73,0.26,1.28,0.38,84.75,10.50,37.65,26.7
2026/04/13 15:08:35.31,IMU,-997.56,-20.02,-55.66,1.19,1.92,1.46,84.30,11.55,37.65,26.3
2026/04/13 15:08:35.42,IMU,-1001.95,-14.16,-49.32,1.81,0.94,-0.33,84.75,11.25,36.90,26.7
2026/04/13 15:08:35.52,IMU,-1016.60,0.00,-61.52,1.76,0.36,-0.46,85.05,9.30,37.65,26.7
2026/04/13 15:08:35.62,IMU,-1004.88,-12.70,-46.88,-0.29,0.08,-0.87,85.35,9.45,38.25,26.4
2026/04/13 15:08:35.72,IMU,-1011.72,-20.51,-65.92,0.22,0.83,-1.85,85.50,10.80,37.65,26.6
2026/04/13 15:08:35.82,IMU,-1008.79,-23.44,-48.34,1.70,0.92,-0.50,85.35,9.15,38.55,26.5
2026/04/13 15:08:35.92,IMU,-996.58,-1.95,-57.62,1.99,2.89,-2.44,83.25,11.25,36.15,26.4
2026/04/13 15:08:36.02,IMU,-1008.30,-11.72,-69.34,0.65,-0.38,0.98,84.75,10.80,37.35,26.8
2026/04/13 15:08:36.12,IMU,-1001.46,-11.72,-68.85,1.34,0.97,1.13,82.50,8.10,40.50,26.3
2026/04/13 15:08:36.22,IMU,-1000.49,-10.74,-59.57,1.47,1.29,1.85,85.05,11.25,39.45,26.5
2026/04/13 15:08:36.32,IMU,-1001.95,-7.81,-59.08,1.06,-0.97,0.49,84.30,11.25,37.95,26.5
2026/04/13 15:08:36.42,IMU,-1011.23,-7.81,-66.89,3.37,0.66,0.07,85.80,10.80,36.90,26.5
2026/04/13 15:08:36.52,IMU,-992.19,-10.25,-52.25,3.82,-0.94,0.01,85.35,10.20,37.50,26.4
2026/04/13 15:08:36.62,IMU,-999.02,-6.84,-56.64,4.88,0.06,1.82,85.65,12.60,38.55,26.7
2026/04/13 15:08:36.72,IMU,-996.58,-2.93,-54.69,0.40,0.77,-1.02,84.75,12.00,36.90,26.7
2026/04/13 15:08:36.82,IMU,-1003.42,-10.74,-70.80,2.53,0.26,1.13,84.15,10.20,37.05,26.4
2026/04/13 15:08:36.92,IMU,-988.77,6.84,-49.32,0.94,1.66,-1.25,83.40,10.65,38.25,26.7
2026/04/13 15:08:37.02,IMU,-1002.93,-11.23,-55.66,1.36,0.44,2.82,84.15,11.40,37.50,26.6
2026/04/13 15:08:37.12,IMU,-1009.28,-14.65,-54.69,0.18,2.44,-0.05,80.55,7.95,41.40,26.4
2026/04/13 15:08:37.22,IMU,-1011.72,-11.23,-61.04,0.58,1.44,-0.16,84.15,10.95,37.80,26.7
2026/04/13 15:08:37.32,IMU,-1008.79,-9.77,-64.45,2.64,2.57,2.17,85.05,10.05,37.95,26.7
2026/04/13 15:08:37.42,IMU,-999.51,-23.44,-50.29,-0.04,-0.25,0.94,85.65,10.65,37.50,26.7
2026/04/13 15:08:37.52,IMU,-1008.30,-18.07,-65.92,1.84,-0.16,-2.73,86.40,10.95,37.05,26.7
2026/04/13 15:08:37.62,IMU,-987.79,-15.63,-53.71,1.99,-0.47,-1.02,85.35,9.45,37.80,26.6
2026/04/13 15:08:37.72,IMU,-996.58,3.42,-47.36,0.60,1.89,-0.22,85.65,10.20,38.25,26.6
2026/04/13 15:08:37.82,IMU,-1002.93,-10.25,-57.13,1.02,0.87,-0.85,85.65,11.40,37.50,26.5
2026/04/13 15:08:37.92,IMU,-1013.18,-8.30,-56.64,1.44,1.79,2.31,83.85,10.20,37.80,26.6
2026/04/13 15:08:38.02,IMU,-1001.95,-7.32,-45.90,1.85,1.54,-0.38,85.65,9.90,37.50,26.6
2026/04/13 15:08:38.13,IMU,-1000.98,1.46,-51.76,1.84,1.27,0.10,82.95,5.85,44.10,26.8
2026/04/13 15:08:38.23,IMU,-996.58,-15.63,-56.15,-0.27,0.60,-0.67,85.05,10.05,37.35,26.8
2026/04/13 15:08:38.33,IMU,-994.14,-14.65,-55.18,0.67,2.73,1.00,86.10,11.40,36.45,26.7
2026/04/13 15:08:38.43,IMU,-990.23,-7.81,-66.41,4.06,1.64,-0.66,85.35,9.90,39.30,26.5
2026/04/13 15:08:38.53,IMU,-1012.70,-12.21,-48.83,-0.94,-0.79,-0.71,84.75,10.80,37.35,26.8
2026/04/13 15:08:38.63,IMU,-1000.00,-0.98,-54.69,1.98,-1.15,1.53,86.25,10.80,37.35,26.7
2026/04/13 15:08:38.73,IMU,-995.61,-7.32,-47.36,0.39,-0.01,-0.64,85.80,9.60,37.95,26.5
2026/04/13 15:08:38.83,IMU,-999.02,-4.39,-57.13,1.74,-0.39,2.59,86.40,10.65,38.55,26.6
2026/04/13 15:08:38.93,IMU,-994.14,-7.81,-63.96,-0.28,2.27,-1.17,84.90,10.20,38.85,26.8
2026/04/13 15:08:39.03,IMU,-1001.46,-8.79,-42.97,-0.34,-1.07,0.56,85.05,8.55,37.95,26.6
2026/04/13 15:08:39.13,IMU,-1002.44,-7.32,-58.11,0.18,-0.08,1.79,86.55,11.55,37.65,26.7
2026/04/13 15:08:39.23,IMU,-1004.88,-10.25,-63.48,1.46,0.40,-0.12,85.35,10.65,37.80,26.6
2026/04/13 15:08:39.33,IMU,-1011.72,-10.74,-40.04,-1.09,1.49,1.80,85.05,10.80,37.35,26.7
2026/04/13 15:08:39.43,IMU,-1014.65,6.35,-121.09,13.17,13.87,1.02,84.00,10.50,37.35,26.7
2026/04/13 15:08:39.53,IMU,-1147.46,66.41,-677.25,-3.14,136.76,4.26,85.50,11.55,36.60,26.7
2026/04/13 15:08:39.63,IMU,-985.35,-6.84,-821.29,-95.22,250.13,-14.53,88.20,8.70,27.75,26.6
2026/04/13 15:08:39.73,IMU,-860.84,30.76,-869.63,-62.88,250.13,-67.85,82.95,6.30,8.70,27.0
2026/04/13 15:08:39.83,IMU,-204.10,187.99,-751.46,-15.11,194.56,-41.84,70.95,3.30,-4.20,26.4
2026/04/13 15:08:39.93,IMU,198.24,-171.39,-581.54,-88.40,86.01,64.88,57.90,7.35,-8.40,26.4
2026/04/13 15:08:40.03,IMU,88.87,148.44,-1432.62,55.71,250.13,128.74,48.45,4.20,-7.50,26.6
2026/04/13 15:08:40.13,IMU,155.27,326.66,-705.08,-6.42,216.34,47.95,31.05,4.35,-6.60,26.7
2026/04/13 15:08:40.23,IMU,478.52,-109.37,309.57,-48.40,134.72,29.55,13.95,3.00,7.20,26.8
2026/04/13 15:08:40.33,IMU,679.69,89.36,-515.63,14.22,38.11,-59.02,9.30,3.60,10.95,26.7
2026/04/13 15:08:40.43,IMU,1213.38,-4.39,162.11,45.29,1.66,-51.21,9.45,5.70,13.95,26.6
2026/04/13 15:08:40.53,IMU,1177.73,-197.75,-450.68,-22.21,20.36,31.81,9.75,7.80,15.30,26.7
2026/04/13 15:08:40.63,IMU,937.99,17.09,161.62,23.36,2.57,-15.89,9.30,6.30,15.60,26.6
2026/04/13 15:08:40.73,IMU,1005.37,1.95,-150.39,24.40,-25.11,9.53,9.00,6.60,14.85,26.4
2026/04/13 15:08:40.83,IMU,989.75,10.74,-24.41,3.32,4.52,5.13,8.40,4.20,14.70,26.8
2026/04/13 15:08:40.93,IMU,997.07,9.28,-61.52,2.73,-1.50,3.59,7.95,5.70,14.70,26.8
2026/04/13 15:08:41.03,IMU,987.30,7.32,-42.97,0.90,2.32,1.65,9.15,4.50,13.95,26.5
2026/04/13 15:08:41.13,IMU,1017.58,15.14,-28.81,2.78,4.81,3.22,9.75,4.35,14.25,26.8
2026/04/13 15:08:41.23,IMU,1008.30,3.91,-48.83,1.56,5.60,-0.82,10.20,4.95,14.70,26.8
2026/04/13 15:08:41.34,IMU,982.42,-3.42,-18.07,0.66,1.28,2.18,8.40,4.50,15.15,26.7
2026/04/13 15:08:41.44,IMU,988.28,10.25,4.88,1.35,3.86,2.66,7.50,3.15,15.30,26.9
2026/04/13 15:08:41.54,IMU,990.72,4.88,-1.95,0.63,1.47,-0.40,7.80,4.65,14.85,26.5
2026/04/13 15:08:41.64,IMU,1000.49,0.49,-32.71,-0.40,4.48,1.75,8.40,4.50,15.75,26.5
2026/04/13 15:08:41.74,IMU,1001.95,20.51,-23.44,0.51,-0.12,-1.37,9.75,2.85,16.05,26.8
2026/04/13 15:08:41.84,IMU,999.02,15.14,-21.48,0.49,-0.37,0.86,9.90,3.75,15.75,26.6
2026/04/13 15:08:41.94,IMU,989.75,7.81,-31.74,2.60,2.91,-0.53,9.45,5.70,15.75,26.5
2026/04/13 15:08:42.04,IMU,983.40,3.91,-20.02,2.37,2.77,-0.77,9.15,4.20,15.15,26.5
2026/04/13 15:08:42.14,IMU,988.77,14.65,-2.93,1.65,-0.65,0.38,10.20,3.75,14.70,26.6
2026/04/13 15:08:42.24,IMU,1008.30,2.44,-20.02,1.63,1.44,1.94,8.55,3.60,15.60,26.8
2026/04/13 15:08:42.34,IMU,1003.42,-9.28,-11.72,0.37,1.05,-1.15,9.30,3.60,14.55,26.8
2026/04/13 15:08:42.44,IMU,998.54,1.95,-17.09,0.87,0.92,1.63,9.30,3.90,16.35,26.7
2026/04/13 15:08:42.54,IMU,984.38,5.86,-27.34,2.24,-1.19,0.13,9.45,4.20,14.40,26.6
2026/04/13 15:08:42.64,IMU,995.12,17.58,-9.28,0.66,0.09,1.18,9.00,5.40,14.85,26.7
2026/04/13 15:08:42.74,IMU,993.16,11.23,-6.35,-0.07,2.54,0.40,8.40,3.00,15.45,26.4
2026/04/13 15:08:42.84,IMU,1000.49,15.14,-16.11,2.60,1.50,0.07,9.75,4.35,15.60,26.5
2026/04/13 15:08:42.94,IMU,1007.32,7.81,-24.90,1.92,-0.64,0.40,7.35,4.50,15.45,26.7
2026/04/13 15:08:43.04,IMU,985.35,-4.88,-18.07,2.79,-0.08,-0.08,9.00,4.35,14.55,26.7
2026/04/13 15:08:43.14,IMU,1001.95,8.79,-27.83,1.55,-4.96,-0.29,8.25,3.15,14.55,26.9
2026/04/13 15:08:43.24,IMU,1002.93,4.39,-34.18,1.86,0.10,0.50,9.15,4.50,15.45,26.7
2026/04/13 15:08:43.34,IMU,1000.00,6.84,-17.09,-0.77,0.04,-0.75,9.45,4.20,14.70,26.8
2026/04/13 15:08:43.44,IMU,1004.39,5.37,-49.80,2.50,-0.47,-0.01,8.40,4.95,14.70,27.0
2026/04/13 15:08:43.54,IMU,1002.44,-3.42,-31.25,2.15,0.55,1.99,8.40,2.55,15.45,26.5
2026/04/13 15:08:43.64,IMU,1000.98,-1.95,-28.32,1.79,-1.75,1.82,8.70,2.55,14.40,26.7
2026/04/13 15:08:43.74,IMU,990.72,0.98,-41.50,3.24,0.51,-1.44,9.00,3.60,15.30,26.6
2026/04/13 15:08:43.84,IMU,1005.37,9.77,-22.95,1.53,3.06,-1.78,7.50,5.40,14.85,26.9
2026/04/13 15:08:43.94,IMU,994.63,-1.95,-32.23,2.37,-0.26,0.89,9.75,4.35,13.05,26.7
2026/04/13 15:08:44.04,IMU,992.68,-2.93,-25.88,1.91,2.03,2.27,9.30,4.65,15.60,26.7
2026/04/13 15:08:44.14,IMU,998.54,-6.84,-19.04,2.54,-2.05,2.14,9.30,4.65,13.80,26.7
2026/04/13 15:08:44.24,IMU,999.02,11.72,-21.48,-1.06,-0.90,1.05,6.60,3.00,16.50,26.7
2026/04/13 15:08:44.34,IMU,984.38,5.37,-35.16,1.72,0.79,-0.18,9.90,4.20,13.95,26.9
2026/04/13 15:08:44.44,IMU,987.79,8.79,-37.11,-0.08,2.80,3.01,9.15,4.20,15.45,26.8
2026/04/13 15:08:44.54,IMU,985.84,6.84,-31.25,1.83,-0.77,-0.88,9.45,4.50,13.95,26.7
2026/04/13 15:08:44.64,IMU,989.75,13.67,-32.23,2.06,2.08,-0.05,8.55,3.90,15.30,26.8
2026/04/13 15:08:44.74,IMU,984.38,6.35,-28.81,1.59,0.56,1.94,8.70,4.95,14.40,26.7
2026/04/13 15:08:44.84,IMU,1001.95,13.67,-36.13,2.66,1.11,0.11,9.15,3.75,13.65,26.8
2026/04/13 15:08:44.94,IMU,997.07,-4.39,-31.74,2.00,2.32,-0.30,9.75,3.90,14.55,26.7
2026/04/13 15:08:45.04,IMU,1003.42,5.86,-25.88,0.18,2.66,0.00,8.70,4.50,14.40,26.6
2026/04/13 15:08:45.15,IMU,991.21,4.39,-33.69,0.04,0.23,1.32,7.95,3.75,13.35,26.8
2026/04/13 15:08:45.25,IMU,1002.44,10.25,-34.18,2.44,-0.60,1.82,5.70,2.40,18.90,26.9
2026/04/13 15:08:45.35,IMU,1000.98,-6.35,-24.41,1.68,3.41,1.34,9.00,4.35,13.50,26.7
2026/04/13 15:08:45.45,IMU,994.14,0.98,-38.57,2.11,0.60,0.63,9.30,5.40,13.50,26.8
2026/04/13 15:08:45.55,IMU,992.19,-0.98,-35.64,1.82,-0.30,-0.11,8.55,3.15,14.25,26.8
2026/04/13 15:08:45.65,IMU,987.30,-1.95,-31.74,2.02,0.15,0.06,10.05,3.60,14.85,27.1
2026/04/13 15:08:45.75,IMU,994.63,-1.46,-41.02,2.02,-0.15,3.18,8.40,3.30,15.15,26.7
2026/04/13 15:08:45.85,IMU,1001.46,15.63,-52.73,0.58,1.55,-0.24,9.30,4.35,16.05,26.9
2026/04/13 15:08:45.95,IMU,991.21,-1.46,-36.13,0.31,-0.46,-0.22,9.00,3.60,14.25,26.8
2026/04/13 15:08:46.05,IMU,996.09,-13.18,-39.06,3.57,-0.44,1.36,9.45,5.25,14.40,26.7
2026/04/13 15:08:46.15,IMU,994.63,14.65,-16.11,0.41,0.41,0.23,7.80,4.35,13.80,26.9
2026/04/13 15:08:46.25,IMU,1004.39,0.49,-40.53,-0.02,-0.26,-0.15,5.40,4.35,15.30,26.9
2026/04/13 15:08:46.35,IMU,995.12,16.60,-38.09,3.05,1.50,0.51,8.70,5.25,13.65,26.7
2026/04/13 15:08:46.45,IMU,978.52,0.98,-34.18,2.21,0.44,-1.26,9.15,3.30,15.45,27.0
2026/04/13 15:08:46.55,IMU,1000.00,-1.46,-39.06,1.35,1.37,-0.51,9.15,4.20,13.95,26.9
2026/04/13 15:08:46.65,IMU,998.05,20.51,-37.60,1.47,1.64,0.13,9.75,3.15,14.25,26.5
2026/04/13 15:08:46.75,IMU,1000.49,0.00,-39.06,1.76,0.19,1.43,9.15,4.50,14.70,26.8
2026/04/13 15:08:46.85,IMU,975.59,4.39,-32.71,-1.18,1.46,-1.17,9.00,3.90,13.80,26.8
2026/04/13 15:08:46.95,IMU,997.56,10.74,-46.39,-0.47,1.21,-2.20,8.55,4.65,14.85,26.6
2026/04/13 15:08:47.05,IMU,992.19,-5.37,-41.02,1.24,0.60,2.07,9.15,5.70,14.70,26.9
2026/04/13 15:08:47.15,IMU,991.70,13.18,-46.88,-1.34,-0.30,0.43,9.15,4.50,14.40,26.8
2026/04/13 15:08:47.25,IMU,999.51,13.67,-30.27,2.45,2.47,2.11,9.90,4.20,14.70,26.6
2026/04/13 15:08:47.35,IMU,1005.37,-5.37,-41.02,1.92,2.26,0.81,8.70,4.50,15.15,26.7
2026/04/13 15:08:47.45,IMU,983.40,-5.37,-38.09,0.44,-0.31,0.52,8.55,4.35,13.50,26.6
2026/04/13 15:08:47.55,IMU,983.40,1.95,-42.97,1.49,-1.24,0.44,8.40,4.95,14.70,26.6
2026/04/13 15:08:47.65,IMU,993.65,-5.86,-37.60,0.60,0.68,-0.50,9.30,5.85,15.30,26.8
2026/04/13 15:08:47.75,IMU,991.21,-9.28,-36.62,0.23,1.21,0.66,10.05,5.40,15.30,26.8
2026/04/13 15:08:47.85,IMU,996.09,0.98,-37.60,2.32,2.46,0.06,9.00,3.90,15.30,26.8
2026/04/13 15:08:47.95,IMU,988.77,-0.49,-29.30,0.87,1.27,-0.18,10.20,3.75,14.40,26.9
2026/04/13 15:08:48.05,IMU,995.12,2.93,-48.34,1.38,-0.01,3.24,9.90,5.25,14.40,26.8
2026/04/13 15:08:48.15,IMU,998.05,9.28,-45.41,1.42,-0.81,-1.03,7.50,4.65,15.30,26.6
2026/04/13 15:08:48.25,IMU,998.54,8.30,-31.74,2.17,-0.40,1.55,9.15,2.25,14.70,27.0
2026/04/13 15:08:48.35,IMU,998.54,4.39,-44.92,3.11,1.74,0.70,7.65,3.75,13.65,26.6
2026/04/13 15:08:48.45,IMU,992.68,4.88,-21.00,1.73,1.39,-0.07,9.45,3.75,13.65,26.8
2026/04/13 15:08:48.55,IMU,993.16,2.93,-49.32,2.38,0.15,0.97,10.35,4.35,14.55,26.7
2026/04/13 15:08:48.65,IMU,1000.49,7.81,-46.88,2.35,2.50,-0.11,9.30,5.40,13.80,26.8
2026/04/13 15:08:48.75,IMU,1000.49,-8.79,-48.83,0.03,-1.05,-0.86,7.80,3.60,14.55,26.6
2026/04/13 15:08:48.85,IMU,992.19,4.88,-40.53,1.45,1.65,-0.11,9.90,2.55,13.35,26.9
2026/04/13 15:08:48.95,IMU,982.42,2.44,-59.08,0.66,1.83,0.93,9.00,3.60,14.25,26.7
2026/04/13 15:08:49.06,IMU,1266.60,-24.90,13.67,-15.39,16.88,-16.62,9.75,5.40,14.55,26.9
2026/04/13 15:08:49.16,IMU,1305.66,112.79,-1.46,50.82,27.50,-201.63,10.95,9.45,15.75,26.9
2026/04/13 15:08:49.26,IMU,189.45,339.36,-283.69,25.63,-40.33,-250.14,23.70,25.65,15.30,26.9
2026/04/13 15:08:49.36,IMU,-300.29,810.55,-223.63,-31.14,-29.99,-193.58,42.00,31.50,13.05,26.8
2026/04/13 15:08:49.46,IMU,234.38,980.96,46.39,-15.83,1.89,-48.21,49.20,31.95,12.90,26.8
2026/04/13 15:08:49.56,IMU,-54.69,985.35,-125.49,4.35,-8.70,-12.51,50.85,31.80,13.80,26.8
2026/04/13 15:08:49.66,IMU,55.18,958.98,13.67,14.57,-6.02,-19.60,51.30,33.30,14.55,26.9
2026/04/13 15:08:49.76,IMU,-111.82,1092.29,-9.77,-8.59,2.03,-6.22,53.10,32.55,13.80,26.8
2026/04/13 15:08:49.86,IMU,-138.67,1020.51,-76.17,4.09,1.76,-3.29,54.75,32.40,12.90,26.8
2026/04/13 15:08:49.96,IMU,59.57,849.61,-436.52,-1.68,-1.36,13.95,53.70,31.95,13.35,26.7
2026/04/13 15:08:50.06,IMU,14.65,975.10,-36.62,1.95,3.02,2.21,52.50,31.65,13.95,26.9
2026/04/13 15:08:50.16,IMU,-62.01,996.09,-55.66,3.27,0.59,-0.94,53.85,31.80,12.00,26.9
2026/04/13 15:08:50.26,IMU,-15.63,985.35,-55.66,-0.43,2.08,-1.24,53.25,32.40,12.60,26.8
2026/04/13 15:08:50.36,IMU,-19.04,989.26,-65.43,-3.48,1.43,2.99,52.80,32.55,14.25,26.8
2026/04/13 15:08:50.46,IMU,15.63,995.12,-25.39,0.27,0.79,-0.21,54.00,31.95,14.70,26.8
2026/04/13 15:08:50.56,IMU,-26.86,999.51,-75.68,-2.39,3.43,0.15,52.80,34.05,13.50,26.8
2026/04/13 15:08:50.66,IMU,-0.49,983.40,5.37,-2.15,0.58,0.37,52.80,31.80,14.85,26.6
2026/04/13 15:08:50.76,IMU,-4.39,990.23,-25.88,-0.14,-0.36,0.72,52.50,32.40,13.65,26.7
2026/04/13 15:08:50.86,IMU,-25.39,1000.00,-9.77,1.02,-0.76,-0.95,53.40,33.00,14.85,27.0
2026/04/13 15:08:50.96,IMU,-6.84,994.14,0.00,-1.05,2.60,-0.36,52.80,33.00,14.25,26.8
2026/04/13 15:08:51.06,IMU,6.35,977.05,-43.46,0.76,1.44,1.72,52.95,31.95,15.45,26.8
2026/04/13 15:08:51.16,IMU,-12.70,997.56,-15.14,3.33,1.18,0.50,53.70,32.40,14.70,27.0
2026/04/13 15:08:51.26,IMU,-3.91,986.82,-43.95,0.15,1.34,0.33,52.95,31.20,15.15,26.9
2026/04/13 15:08:51.36,IMU,9.28,982.91,-32.23,0.21,1.89,0.82,53.70,32.85,13.95,27.1
2026/04/13 15:08:51.46,IMU,3.42,993.65,-41.02,-3.47,-0.70,0.46,52.80,33.30,13.80,26.7
2026/04/13 15:08:51.56,IMU,-5.37,987.79,-30.27,-0.46,-0.17,1.25,52.50,31.95,15.75,26.9
2026/04/13 15:08:51.66,IMU,3.42,979.98,-12.21,-1.22,-0.31,-0.08,53.85,33.00,14.85,26.7
2026/04/13 15:08:51.76,IMU,2.44,993.16,-3.91,-0.30,1.93,0.37,54.00,31.95,14.40,27.0
2026/04/13 15:08:51.86,IMU,-19.04,1003.91,-9.77,2.41,-1.16,0.43,53.10,33.75,14.85,26.7
2026/04/13 15:08:51.96,IMU,6.35,993.65,-9.28,2.43,0.27,0.23,52.95,32.85,15.45,26.7
2026/04/13 15:08:52.06,IMU,4.88,994.14,-8.30,-0.30,2.13,-0.40,52.20,34.35,14.40,27.0
2026/04/13 15:08:52.16,IMU,-15.63,978.52,-22.46,0.97,0.34,1.27,53.10,34.50,14.85,26.8
2026/04/13 15:08:52.26,IMU,-13.67,1002.93,-25.88,-0.68,-0.94,-0.08,53.40,32.25,15.60,26.8
2026/04/13 15:08:52.36,IMU,-9.77,981.93,-18.07,1.45,0.76,2.75,49.05,32.25,16.65,26.9
2026/04/13 15:08:52.46,IMU,13.67,995.61,2.44,0.47,0.96,1.76,53.25,34.35,16.20,26.8
2026/04/13 15:08:52.56,IMU,-1.46,995.61,-13.67,-0.14,1.46,-2.58,52.50,33.90,15.15,26.8
2026/04/13 15:08:52.66,IMU,-3.91,987.30,-21.00,2.05,1.08,2.55,52.95,32.40,16.20,26.8
2026/04/13 15:08:52.77,IMU,-5.37,987.30,-16.11,0.34,-2.50,-1.05,51.75,34.65,16.95,26.9
2026/04/13 15:08:52.87,IMU,-12.70,989.26,-32.23,1.55,-1.18,0.95,53.40,34.05,15.60,26.8
2026/04/13 15:08:52.97,IMU,-13.67,993.16,-22.95,2.18,0.95,-1.15,53.10,32.25,14.85,26.7
2026/04/13 15:08:53.07,IMU,10.25,998.05,-21.48,-0.60,2.20,0.02,52.05,33.75,15.60,26.8
2026/04/13 15:08:53.17,IMU,-15.14,991.21,-15.63,3.08,-0.42,-0.50,51.75,33.60,14.70,27.0
2026/04/13 15:08:53.27,IMU,-1.95,990.23,-7.32,-0.73,0.50,-1.55,54.90,33.75,16.35,27.0
2026/04/13 15:08:53.37,IMU,-7.81,983.89,-26.37,1.56,4.22,-0.40,51.45,31.20,16.95,27.0
2026/04/13 15:08:53.47,IMU,1.46,980.47,-7.81,2.05,-1.06,0.37,53.40,32.55,15.30,26.8
2026/04/13 15:08:53.57,IMU,-14.16,989.26,-30.76,2.53,1.16,-0.09,54.75,33.15,15.45,26.9
2026/04/13 15:08:53.67,IMU,-11.72,999.02,-28.32,3.02,1.52,0.57,53.85,32.25,14.85,26.7
2026/04/13 15:08:53.77,IMU,-8.79,996.58,-5.37,2.98,2.68,1.40,53.85,31.80,16.35,26.9
2026/04/13 15:08:53.87,IMU,-11.23,992.19,-12.70,-1.01,1.18,0.50,52.95,31.20,15.45,27.0
2026/04/13 15:08:53.97,IMU,-11.23,996.09,0.00,1.59,0.40,2.07,53.10,33.75,14.55,26.8
2026/04/13 15:08:54.07,IMU,-6.84,991.21,-20.02,1.35,0.34,-1.34,52.35,34.95,14.55,26.8
2026/04/13 15:08:54.17,IMU,-8.30,1001.95,2.44,1.83,0.63,0.93,53.10,33.30,16.65,26.9
2026/04/13 15:08:54.27,IMU,-2.44,994.63,-0.49,-0.72,1.12,0.26,52.95,33.60,15.75,26.8
2026/04/13 15:08:54.37,IMU,-4.39,986.82,-9.77,1.07,0.69,0.10,50.55,31.05,19.20,26.8
2026/04/13 15:08:54.47,IMU,-11.23,992.68,12.21,1.85,0.50,2.43,52.50,32.85,17.25,26.9
2026/04/13 15:08:54.57,IMU,2.93,985.84,-0.98,-0.19,3.40,-2.30,52.35,31.80,15.60,26.8
2026/04/13 15:08:54.67,IMU,-8.79,1000.98,4.39,0.34,2.38,1.40,52.35,33.75,16.65,26.9
2026/04/13 15:08:54.77,IMU,-9.28,979.00,-4.39,2.19,-0.36,-1.42,54.45,33.90,15.15,26.6
2026/04/13 15:08:54.87,IMU,-5.37,976.07,7.32,1.23,-0.25,0.29,52.50,33.60,16.65,26.7
2026/04/13 15:08:54.97,IMU,0.98,983.40,-8.79,1.66,-1.35,-1.32,53.40,33.00,14.55,27.0
2026/04/13 15:08:55.07,IMU,-16.11,997.56,-15.14,1.67,2.54,-0.33,53.40,32.25,14.55,26.9
2026/04/13 15:08:55.17,IMU,4.39,1000.98,-1.46,-0.04,1.56,-2.37,54.15,32.25,14.85,26.7
2026/04/13 15:08:55.27,IMU,-18.55,1000.98,-21.48,0.86,1.79,2.05,52.20,33.60,16.20,26.7
2026/04/13 15:08:55.38,IMU,-15.14,990.23,-3.91,-0.82,1.15,-0.74,50.55,31.80,19.95,27.0
2026/04/13 15:08:55.48,IMU,-15.63,996.09,-6.84,0.31,1.94,0.32,54.45,32.40,15.75,27.1
2026/04/13 15:08:55.58,IMU,-2.93,998.05,-13.67,1.75,1.49,-0.76,53.25,34.35,16.20,27.0
2026/04/13 15:08:55.68,IMU,-8.30,1005.86,-7.32,1.36,1.91,-0.64,51.45,33.90,16.20,27.1
2026/04/13 15:08:55.78,IMU,-11.72,990.72,1.95,2.44,0.28,-0.87,52.80,33.30,15.60,26.8
2026/04/13 15:08:55.88,IMU,-0.49,999.51,-13.67,2.60,0.69,1.50,53.10,33.75,15.60,27.1
2026/04/13 15:08:55.98,IMU,-9.77,997.07,-6.35,1.36,2.97,-0.96,52.80,33.00,14.85,26.9
2026/04/13 15:08:56.08,IMU,-13.67,998.54,2.44,2.49,-0.19,-0.94,53.70,34.65,15.15,27.0
2026/04/13 15:08:56.18,IMU,-9.28,993.65,7.81,3.02,2.41,-1.25,54.15,34.05,16.05,26.6
2026/04/13 15:08:56.28,IMU,-6.35,994.14,-5.37,1.55,0.88,1.32,53.10,34.05,14.55,27.1
2026/04/13 15:08:56.38,IMU,-6.35,983.40,-1.95,0.31,2.98,1.37,54.90,33.00,15.30,27.1
2026/04/13 15:08:56.48,IMU,-0.98,1004.88,0.00,0.73,-3.11,0.18,52.05,32.55,14.85,27.0
2026/04/13 15:08:56.58,IMU,0.49,995.61,1.95,2.84,-0.20,1.29,52.95,33.90,15.75,26.8
2026/04/13 15:08:56.68,IMU,-9.28,997.56,4.39,-0.05,0.05,1.13,53.70,33.90,15.45,27.0
2026/04/13 15:08:56.78,IMU,-8.30,995.61,-10.25,1.78,2.72,0.32,52.05,33.75,15.30,27.1
2026/04/13 15:08:56.88,IMU,-4.88,998.05,8.79,3.34,-0.33,0.18,54.00,35.10,15.75,26.7
2026/04/13 15:08:56.98,IMU,4.39,986.33,-17.09,0.49,2.85,0.21,53.10,33.75,16.05,26.8
2026/04/13 15:08:57.08,IMU,-15.14,979.98,-3.42,2.01,0.44,3.23,53.85,33.90,15.45,27.0
2026/04/13 15:08:57.18,IMU,-1.95,1006.84,-5.86,0.21,2.21,1.28,53.85,33.30,17.10,26.7
2026/04/13 15:08:57.28,IMU,-0.98,987.79,-4.39,3.59,3.44,0.07,53.40,31.50,16.35,27.0
2026/04/13 15:08:57.38,IMU,-8.79,986.33,-0.98,1.58,0.45,-1.29,53.25,32.40,16.50,26.9
2026/04/13 15:08:57.48,IMU,-14.16,1001.46,-15.63,0.43,0.32,0.14,52.95,33.15,15.15,26.9
2026/04/13 15:08:57.59,IMU,-4.88,975.59,-11.72,0.99,3.03,-0.53,53.40,33.75,16.35,27.0
2026/04/13 15:08:57.69,IMU,-5.37,985.35,2.93,-1.36,-2.57,1.41,54.60,33.75,15.30,26.8
2026/04/13 15:08:57.79,IMU,-9.28,1004.39,-7.81,1.71,2.52,0.78,52.05,33.00,15.60,26.7
2026/04/13 15:08:57.89,IMU,-11.23,988.28,-13.18,2.47,0.54,-1.56,53.85,33.00,16.05,26.9
2026/04/13 15:08:57.99,IMU,-21.00,998.54,1.95,1.37,1.63,-0.43,52.95,33.90,15.15,26.9
2026/04/13 15:08:58.09,IMU,-11.23,1003.42,-14.16,3.99,-1.41,0.59,54.00,33.60,16.95,26.8
2026/04/13 15:08:58.19,IMU,-7.81,994.63,-24.41,3.57,1.51,1.36,54.90,32.25,15.30,27.1
2026/04/13 15:08:58.29,IMU,-17.58,990.72,5.86,2.41,0.15,1.42,52.35,33.30,16.05,26.7
2026/04/13 15:08:58.39,IMU,-0.49,989.75,-10.25,2.82,1.23,0.98,51.75,33.60,16.50,26.9
2026/04/13 15:08:58.49,IMU,-6.84,988.28,0.98,1.00,1.49,0.24,53.25,31.95,16.50,27.0
2026/04/13 15:08:58.59,IMU,-14.16,993.65,-1.95,1.00,1.63,-0.94,53.85,33.30,16.35,26.8
2026/04/13 15:08:58.69,IMU,-13.18,980.47,-3.42,0.56,1.90,1.34,53.40,33.75,14.85,26.9
2026/04/13 15:08:58.79,IMU,-7.32,992.19,0.49,2.11,-1.27,2.08,53.25,33.60,15.15,26.8
2026/04/13 15:08:58.89,IMU,-13.67,986.82,-9.77,0.82,1.82,-0.56,54.60,33.30,15.60,26.8
2026/04/13 15:08:58.99,IMU,-3.42,986.82,0.49,1.38,1.36,0.79,52.80,32.25,16.20,27.2
2026/04/13 15:08:59.09,IMU,-6.35,985.84,14.16,2.79,2.06,2.04,53.25,31.95,15.75,27.2
2026/04/13 15:08:59.19,IMU,19.53,991.70,111.82,5.06,-0.18,8.67,52.35,34.05,14.85,26.8
2026/04/13 15:08:59.29,IMU,15.63,1297.36,151.86,38.56,22.74,106.42,51.00,32.40,15.15,26.8
2026/04/13 15:08:59.39,IMU,-73.73,915.53,45.41,40.73,60.27,250.13,42.75,34.05,13.05,26.7
2026/04/13 15:08:59.49,IMU,754.39,-125.49,188.96,-56.62,88.21,250.13,18.00,21.75,16.50,27.1
2026/04/13 15:08:59.59,IMU,558.59,-425.29,25.88,-50.02,11.22,250.13,7.80,-1.20,21.00,27.0
2026/04/13 15:08:59.69,IMU,647.95,-616.70,-213.87,-39.01,-7.36,206.11,9.75,-21.45,19.20,27.1
2026/04/13 15:08:59.79,IMU,999.51,-944.82,329.10,-74.38,-7.30,127.76,19.05,-33.90,16.95,27.0
2026/04/13 15:08:59.89,IMU,486.82,-1112.30,-20.02,-23.05,-12.65,45.00,24.15,-36.15,12.90,27.2
2026/04/13 15:08:59.99,IMU,396.00,-1059.08,-21.48,-18.75,-8.93,40.55,27.15,-38.10,9.30,26.8
2026/04/13 15:09:00.09,IMU,272.46,-1025.39,48.34,-2.37,-1.95,40.11,28.80,-36.45,10.20,27.0
2026/04/13 15:09:00.19,IMU,-64.94,-1106.45,-171.88,15.28,16.93,54.63,30.15,-39.30,11.55,26.8
2026/04/13 15:09:00.29,IMU,141.60,-1002.44,-138.67,11.42,-4.92,22.27,30.90,-40.35,11.85,26.9
2026/04/13 15:09:00.39,IMU,142.58,-1012.70,34.18,-7.78,-6.99,-10.65,32.25,-40.80,12.60,26.9
2026/04/13 15:09:00.49,IMU,40.04,-895.51,201.17,14.84,-1.50,-3.76,31.35,-39.90,9.90,27.0
2026/04/13 15:09:00.59,IMU,141.11,-969.73,19.53,17.92,5.50,-2.63,31.05,-42.15,12.75,27.0
2026/04/13 15:09:00.69,IMU,178.22,-890.63,278.81,-3.37,6.73,33.05,30.60,-42.45,13.80,27.0
2026/04/13 15:09:00.79,IMU,73.73,-1014.16,-133.79,4.96,13.66,6.02,32.70,-40.80,13.65,27.1
2026/04/13 15:09:00.89,IMU,-33.69,-829.10,206.54,44.35,40.49,58.47,32.25,-43.05,14.40,26.7
2026/04/13 15:09:00.99,IMU,-40.04,-1048.34,-14.16,15.03,-23.78,-4.27,34.95,-44.55,15.75,26.8
2026/04/13 15:09:01.09,IMU,-26.86,-999.51,-79.59,0.53,0.32,3.65,32.10,-44.40,17.40,27.0
2026/04/13 15:09:01.19,IMU,-39.55,-1002.93,66.41,-21.40,4.69,22.56,34.65,-45.15,16.65,26.9
2026/04/13 15:09:01.30,IMU,-106.93,-1003.91,-49.80,3.50,-14.21,9.53,35.85,-43.65,16.05,27.0
2026/04/13 15:09:01.40,IMU,-80.08,-1004.88,-12.21,12.06,-5.53,-14.85,35.25,-45.00,15.15,26.8
2026/04/13 15:09:01.50,IMU,-62.01,-1023.44,4.88,-6.51,-15.89,-15.31,34.35,-44.85,18.15,27.1
2026/04/13 15:09:01.60,IMU,-44.43,-974.61,21.00,2.69,-15.81,-6.18,35.40,-44.85,16.65,26.8
2026/04/13 15:09:01.70,IMU,58.11,-969.73,278.32,-5.58,22.19,-6.73,32.25,-45.45,16.50,26.8
2026/04/13 15:09:01.80,IMU,-7.32,-1021.97,3.91,4.63,1.48,-1.16,33.30,-45.60,17.10,27.0
2026/04/13 15:09:01.90,IMU,4.39,-983.40,-84.96,-0.88,16.15,-0.55,33.45,-43.80,17.25,27.0
2026/04/13 15:09:02.00,IMU,22.46,-1011.23,-16.11,5.11,3.46,2.76,34.20,-45.45,16.95,27.1
2026/04/13 15:09:02.10,IMU,46.88,-960.94,81.05,0.98,-13.06,0.44,33.90,-45.15,14.85,27.1
2026/04/13 15:09:02.20,IMU,-12.21,-1012.70,-3.42,2.44,-5.20,0.22,33.60,-43.35,16.35,27.0
2026/04/13 15:09:02.30,IMU,10.74,-1013.18,12.21,2.40,-1.13,0.31,35.55,-43.05,17.25,27.1
2026/04/13 15:09:02.40,IMU,-17.09,-1010.74,8.30,1.44,-0.62,1.82,33.60,-45.60,17.10,27.0
2026/04/13 15:09:02.50,IMU,-10.25,-1011.72,-1.46,-1.69,1.66,0.43,31.95,-46.20,19.80,27.1
2026/04/13 15:09:02.60,IMU,-2.44,-1017.58,30.27,2.21,1.43,2.84,33.00,-44.25,17.55,27.0
2026/04/13 15:09:02.70,IMU,-1.95,-995.61,10.25,0.10,-0.80,0.31,34.20,-44.25,16.20,26.9
2026/04/13 15:09:02.80,IMU,-14.16,-1017.09,-1.46,0.10,0.77,2.89,33.30,-44.40,16.35,26.9
2026/04/13 15:09:02.90,IMU,-3.91,-1003.91,25.88,1.52,0.49,1.44,33.60,-44.85,16.65,27.0
2026/04/13 15:09:03.00,IMU,-12.70,-1013.67,8.30,1.40,-0.21,-1.16,32.55,-42.90,17.10,26.8
2026/04/13 15:09:03.10,IMU,-2.44,-1018.55,9.28,0.78,0.74,-1.42,33.75,-45.45,17.25,26.9
2026/04/13 15:09:03.20,IMU,-18.55,-1017.09,16.60,0.41,2.31,-1.08,34.20,-44.25,16.95,27.0
2026/04/13 15:09:03.30,IMU,-9.28,-1001.95,13.67,2.08,0.31,0.03,33.90,-45.15,15.30,27.0
2026/04/13 15:09:03.40,IMU,-5.86,-1008.30,5.37,2.07,0.55,-0.19,34.35,-45.15,16.65,27.0
2026/04/13 15:09:03.50,IMU,-5.37,-1012.21,-2.93,1.37,2.37,3.00,32.25,-48.45,20.85,26.9
2026/04/13 15:09:03.60,IMU,-11.72,-1010.74,15.14,-0.09,0.82,1.50,34.20,-44.55,16.50,26.9
2026/04/13 15:09:03.70,IMU,-19.04,-1014.16,4.88,-1.26,2.37,0.24,34.65,-44.10,17.10,26.8
2026/04/13 15:09:03.80,IMU,-6.35,-1008.30,10.25,2.31,3.04,0.82,33.75,-44.25,16.50,27.1
2026/04/13 15:09:03.90,IMU,-4.39,-1006.35,3.42,0.18,1.95,0.50,33.90,-44.40,17.40,27.0
2026/04/13 15:09:04.00,IMU,-13.18,-1001.95,3.42,1.11,0.06,-0.14,33.45,-44.55,16.95,27.0
2026/04/13 15:09:04.10,IMU,-1.95,-1008.30,1.46,0.95,1.67,-0.79,33.60,-45.60,17.40,26.8
2026/04/13 15:09:04.20,IMU,5.37,-1015.63,18.55,2.36,1.28,-0.52,32.70,-44.55,15.15,27.0
2026/04/13 15:09:04.30,IMU,-6.35,-1013.18,6.84,1.16,2.05,2.30,33.75,-45.00,16.20,26.9
2026/04/13 15:09:04.40,IMU,-16.11,-990.23,-3.42,-0.09,2.32,-0.95,33.90,-45.90,16.35,27.0
2026/04/13 15:09:04.51,IMU,-8.79,-1021.97,-8.79,-0.58,0.75,0.50,35.55,-47.25,16.95,27.0
2026/04/13 15:09:04.61,IMU,1.46,-1006.35,-4.88,-0.29,1.50,-0.13,33.60,-44.10,16.35,26.9
2026/04/13 15:09:04.71,IMU,1.46,-1010.25,4.88,-0.71,0.33,0.49,34.20,-45.75,16.95,27.1
2026/04/13 15:09:04.81,IMU,-3.91,-997.07,23.44,1.07,1.03,-0.37,34.35,-44.85,15.60,26.8
2026/04/13 15:09:04.91,IMU,-3.91,-1006.84,-4.88,-0.92,-0.71,-1.08,33.30,-45.90,16.65,27.1
2026/04/13 15:09:05.01,IMU,-3.91,-1019.53,7.81,-0.14,3.31,-0.69,34.20,-44.55,15.15,27.1
2026/04/13 15:09:05.11,IMU,-5.37,-1005.37,9.77,2.10,2.45,-0.53,33.30,-44.85,16.35,27.2
2026/04/13 15:09:05.21,IMU,-13.18,-1007.32,11.23,0.99,2.19,-0.66,32.70,-46.20,16.95,27.1
2026/04/13 15:09:05.32,IMU,-5.86,-1003.91,15.63,0.73,1.97,0.93,34.95,-44.55,16.95,26.9
2026/04/13 15:09:05.42,IMU,8.30,-999.51,-4.39,0.87,1.27,-1.05,35.10,-44.10,16.65,26.8
2026/04/13 15:09:05.52,IMU,-2.93,-1016.11,7.32,3.16,4.68,-1.11,33.75,-44.55,17.55,27.0
2026/04/13 15:09:05.62,IMU,-10.74,-1011.72,10.74,2.56,0.67,-2.10,33.45,-43.80,16.95,27.0
2026/04/13 15:09:05.72,IMU,-0.49,-1016.60,6.35,-0.43,0.32,-0.79,35.55,-45.45,17.55,26.9
2026/04/13 15:09:05.82,IMU,0.00,-1009.77,9.77,0.76,-0.32,-0.63,34.95,-43.50,15.75,26.8
2026/04/13 15:09:05.92,IMU,-0.98,-1000.49,0.49,1.06,0.50,1.90,33.45,-43.80,17.55,27.1
2026/04/13 15:09:06.02,IMU,-25.88,-1019.53,7.32,-0.51,2.39,0.34,33.00,-45.45,17.25,26.9
2026/04/13 15:09:06.12,IMU,-2.93,-1016.60,0.49,0.74,3.12,0.88,34.50,-43.80,16.95,27.0
2026/04/13 15:09:06.22,IMU,-19.53,-1018.07,8.30,0.08,2.30,0.97,33.75,-45.45,17.25,27.1
2026/04/13 15:09:06.32,IMU,-17.09,-1015.14,0.98,1.89,-0.66,0.14,33.90,-45.60,17.10,27.0
2026/04/13 15:09:06.42,IMU,-2.93,-1012.70,4.88,1.67,-0.57,-0.04,32.70,-45.00,17.55,27.0
2026/04/13 15:09:06.52,IMU,-19.53,-1012.21,0.00,4.16,-0.99,1.87,33.00,-45.45,18.00,27.0
2026/04/13 15:09:06.62,IMU,-17.09,-1018.07,14.16,-0.42,1.92,0.40,34.20,-46.50,17.55,26.8
2026/04/13 15:09:06.72,IMU,-8.79,-1013.67,4.39,1.13,0.18,-1.21,33.75,-44.55,17.55,26.9
2026/04/13 15:09:06.82,IMU,-18.55,-1021.97,22.46,0.06,1.04,-0.62,31.95,-44.55,15.45,27.0
2026/04/13 15:09:06.92,IMU,5.86,-1025.39,10.25,2.19,0.18,1.27,33.45,-43.80,17.55,27.0
2026/04/13 15:09:07.02,IMU,15.14,-1018.07,20.51,0.02,-1.55,2.40,31.80,-44.85,15.30,27.2
2026/04/13 15:09:07.12,IMU,-0.98,-1007.81,9.77,0.88,3.51,1.02,34.95,-45.45,17.25,27.0
2026/04/13 15:09:07.22,IMU,10.74,-1006.84,21.00,2.18,2.85,-1.81,34.50,-44.25,16.50,26.7
2026/04/13 15:09:07.32,IMU,-5.86,-1005.86,3.91,2.38,0.62,0.34,33.00,-45.45,15.45,27.2
2026/04/13 15:09:07.42,IMU,-12.21,-1008.79,10.25,2.34,0.79,0.91,33.45,-45.45,15.15,27.0
2026/04/13 15:09:07.52,IMU,-14.16,-1016.11,8.79,1.18,2.34,0.53,33.00,-45.00,15.45,26.9
2026/04/13 15:09:07.62,IMU,5.37,-1006.84,17.58,2.55,0.86,0.89,33.60,-44.85,16.65,27.3
2026/04/13 15:09:07.72,IMU,-12.21,-1010.25,3.42,1.38,0.33,-0.86,33.75,-45.00,16.20,26.7
2026/04/13 15:09:07.82,IMU,-9.28,-1021.48,18.55,-0.38,1.61,0.51,34.65,-45.90,17.40,27.2
2026/04/13 15:09:07.92,IMU,-9.28,-1009.77,27.83,1.92,-0.61,0.47,32.10,-44.85,17.10,27.0
2026/04/13 15:09:08.02,IMU,0.49,-1005.86,15.14,3.04,1.23,1.74,34.20,-43.80,16.95,26.8
2026/04/13 15:09:08.12,IMU,-8.30,-1004.39,23.44,1.05,0.50,0.18,33.75,-45.45,16.20,27.0
2026/04/13 15:09:08.22,IMU,-7.81,-1004.39,6.84,1.77,0.67,2.00,33.45,-44.55,16.20,27.1
2026/04/13 15:09:08.32,IMU,-8.79,-1011.72,10.25,1.47,-0.98,0.37,33.90,-45.15,17.40,26.8
2026/04/13 15:09:08.42,IMU,2.93,-1024.41,7.32,0.69,2.70,1.06,33.30,-45.60,16.05,26.8
2026/04/13 15:09:08.52,IMU,3.42,-1012.70,4.39,1.27,1.66,1.08,33.90,-44.85,17.10,26.8
2026/04/13 15:09:08.62,IMU,-2.44,-1016.60,5.86,0.78,0.58,1.64,33.45,-44.25,16.95,27.1
2026/04/13 15:09:08.72,IMU,-7.32,-1001.95,15.63,-0.03,0.37,0.19,33.60,-44.85,16.05,26.9
2026/04/13 15:09:08.82,IMU,-12.70,-1014.65,12.70,2.01,1.00,0.13,32.25,-44.55,16.95,27.0
2026/04/13 15:09:08.92,IMU,-26.37,-999.02,10.74,2.16,3.19,-1.57,34.20,-45.75,16.95,26.7
2026/04/13 15:09:09.03,IMU,-7.32,-1015.14,10.74,2.95,2.67,-0.90,32.25,-46.20,16.50,27.0
2026/04/13 15:09:09.13,IMU,1.46,-1022.95,-1.46,3.65,2.85,2.48,34.20,-44.55,18.00,27.0
2026/04/13 15:09:09.23,IMU,0.98,-1011.23,70.31,1.21,-15.18,-0.79,34.65,-45.15,16.05,27.1
2026/04/13 15:09:09.33,IMU,12.70,-1030.27,-36.62,-4.02,-84.06,-22.04,33.45,-44.55,16.20,27.0
2026/04/13 15:09:09.43,IMU,503.91,-527.83,-344.24,-82.85,-221.41,-66.08,37.65,-43.65,9.90,27.0
2026/04/13 15:09:09.53,IMU,203.13,-1038.57,-97.66,-223.95,-94.96,-149.27,40.95,-34.05,1.20,26.9
2026/04/13 15:09:09.63,IMU,234.86,-671.88,-472.66,-71.65,-128.05,-172.99,42.00,-21.45,-6.90,27.2
2026/04/13 15:09:09.73,IMU,-22.46,-458.50,-450.68,-42.82,-56.70,-122.99,45.00,-14.25,-8.40,26.9
2026/04/13 15:09:09.83,IMU,371.09,-181.15,-2000.00,-137.28,8.89,-101.68,45.90,-9.90,-9.30,27.1
2026/04/13 15:09:09.93,IMU,388.67,-12.21,-814.45,-47.63,-127.18,-58.21,48.45,-4.95,-12.15,27.0
2026/04/13 15:09:10.03,IMU,266.11,-30.27,-810.55,-132.75,8.75,-18.72,52.50,0.00,-10.35,26.7
2026/04/13 15:09:10.13,IMU,582.03,1999.94,-2000.00,26.17,160.47,40.38,56.25,2.55,-12.15,27.1
2026/04/13 15:09:10.23,IMU,59.57,-47.36,-1000.98,1.47,2.27,0.56,60.15,2.85,-9.45,27.0
2026/04/13 15:09:10.33,IMU,160.16,-99.61,-1058.11,-3.08,-0.04,31.26,58.80,1.80,-8.25,27.2
2026/04/13 15:09:10.43,IMU,93.26,-28.32,-1015.14,0.95,2.32,2.97,60.30,3.00,-9.60,26.8
2026/04/13 15:09:10.53,IMU,100.59,-42.48,-887.21,1.02,-3.56,0.50,59.85,1.80,-10.05,26.9
2026/04/13 15:09:10.63,IMU,82.52,1.46,-996.58,1.74,-3.38,-2.15,57.75,4.20,-8.55,26.8
2026/04/13 15:09:10.73,IMU,62.99,-35.64,-1021.48,1.99,1.83,1.38,58.05,3.30,-9.00,27.1
2026/04/13 15:09:10.83,IMU,75.68,-8.30,-1007.32,-0.18,-0.64,0.34,57.90,4.35,-8.10,26.8
2026/04/13 15:09:10.93,IMU,70.80,-21.00,-1014.16,-0.93,1.31,-0.95,60.15,5.10,-9.45,27.1
2026/04/13 15:09:11.03,IMU,63.48,-21.00,-1005.37,1.19,2.82,-0.18,59.70,3.90,-9.15,27.0
2026/04/13 15:09:11.13,IMU,74.71,-18.55,-1000.49,2.88,0.88,0.31,60.15,2.10,-10.20,26.7
2026/04/13 15:09:11.23,IMU,53.22,-21.00,-1029.30,0.92,1.38,-0.57,59.55,2.55,-9.30,26.8
2026/04/13 15:09:11.33,IMU,72.75,-16.11,-1019.53,2.50,-0.82,-0.56,58.95,2.40,-9.45,27.0
2026/04/13 15:09:11.43,IMU,62.01,-24.90,-1018.55,1.86,-1.20,1.90,58.65,3.60,-9.15,26.5
2026/04/13 15:09:11.53,IMU,100.59,34.67,-794.92,0.61,-4.55,1.92,58.80,4.95,-9.30,27.0
2026/04/13 15:09:11.63,IMU,64.94,-37.11,-980.47,0.59,1.82,0.70,57.90,3.60,-8.10,26.8
2026/04/13 15:09:11.73,IMU,61.04,-16.60,-1011.23,1.82,-2.08,0.48,58.95,3.15,-9.90,26.8
2026/04/13 15:09:11.83,IMU,71.29,-21.97,-1016.11,1.07,1.02,1.74,57.75,3.00,-10.05,27.1
2026/04/13 15:09:11.93,IMU,67.87,-15.14,-1028.32,0.72,1.97,0.14,58.95,3.60,-8.70,26.8
2026/04/13 15:09:12.03,IMU,80.08,-16.11,-1019.53,2.11,1.19,-1.03,59.55,3.75,-7.80,27.0
2026/04/13 15:09:12.13,IMU,76.66,-17.09,-1022.46,-0.88,2.04,1.24,58.50,4.20,-10.05,26.9
2026/04/13 15:09:12.23,IMU,83.50,-8.30,-1009.28,2.27,3.23,0.69,59.40,5.10,-8.70,26.6
2026/04/13 15:09:12.33,IMU,72.27,-29.79,-1011.72,1.85,2.31,1.65,59.85,3.00,-10.35,26.8
2026/04/13 15:09:12.43,IMU,71.78,-23.44,-1017.58,1.41,2.75,0.43,58.95,2.85,-9.15,27.0
2026/04/13 15:09:12.53,IMU,80.08,-11.72,-1020.51,1.69,0.77,-0.25,59.85,4.20,-10.05,26.7
2026/04/13 15:09:12.64,IMU,69.34,-22.95,-1012.70,1.77,1.19,0.45,57.15,1.65,-4.05,27.0
2026/04/13 15:09:12.74,IMU,77.64,-13.18,-1023.93,2.28,0.54,-0.95,58.95,2.85,-9.15,27.1
2026/04/13 15:09:12.84,IMU,68.36,-28.32,-1026.37,0.88,0.03,0.78,60.15,1.65,-10.50,26.7
2026/04/13 15:09:12.94,IMU,80.57,-16.60,-1019.04,-0.06,-0.73,0.47,58.50,3.00,-9.00,26.8
2026/04/13 15:09:13.04,IMU,64.94,-16.60,-1018.07,1.57,1.48,-1.02,60.15,2.85,-10.20,26.8
2026/04/13 15:09:13.14,IMU,77.64,-14.65,-1016.60,2.78,0.42,1.61,60.30,4.20,-9.30,27.0
2026/04/13 15:09:13.24,IMU,78.61,-18.55,-1021.00,0.81,0.30,-1.31,59.70,3.60,-9.45,26.8
2026/04/13 15:09:13.34,IMU,59.08,-23.93,-1018.55,2.37,3.37,1.02,59.40,2.10,-10.95,26.9
2026/04/13 15:09:13.44,IMU,66.89,-16.60,-1011.23,2.77,1.12,2.18,59.70,3.60,-9.15,26.6
2026/04/13 15:09:13.54,IMU,74.22,-31.25,-1011.72,-0.64,0.88,-2.05,58.50,3.00,-9.30,26.9
2026/04/13 15:09:13.65,IMU,79.59,-16.11,-1016.60,1.56,1.85,2.00,60.45,2.85,-9.45,27.2
2026/04/13 15:09:13.75,IMU,75.20,-25.88,-1013.67,1.53,-1.87,-0.44,59.85,2.25,-9.60,26.9
2026/04/13 15:09:13.85,IMU,72.75,-24.41,-1010.74,0.56,1.42,-0.43,58.50,4.20,-9.30,26.7
2026/04/13 15:09:13.95,IMU,68.36,-18.55,-1014.65,1.40,1.91,-1.13,59.10,3.75,-9.00,26.9
2026/04/13 15:09:14.05,IMU,70.80,-22.95,-1007.81,1.37,1.03,-0.69,58.95,3.15,-10.20,26.8
2026/04/13 15:09:14.15,IMU,68.36,-20.02,-1026.86,1.19,1.85,-2.32,58.65,3.15,-10.95,26.8
2026/04/13 15:09:14.25,IMU,73.24,-23.44,-1002.93,1.10,0.99,-3.76,60.30,3.30,-10.05,26.7
2026/04/13 15:09:14.35,IMU,64.45,-18.07,-1011.72,1.79,-0.19,0.77,58.50,3.75,-9.00,26.8
2026/04/13 15:09:14.45,IMU,67.87,-29.79,-1012.70,0.98,0.12,-1.15,58.65,3.15,-9.45,27.1
2026/04/13 15:09:14.55,IMU,74.22,-23.44,-1029.30,1.61,-0.69,1.32,58.95,3.90,-9.15,26.8
2026/04/13 15:09:14.65,IMU,69.82,-26.37,-1012.21,1.07,1.24,0.77,59.70,3.60,-8.70,26.8
2026/04/13 15:09:14.75,IMU,56.15,-14.16,-1002.44,1.23,-0.21,1.37,59.55,4.20,-8.55,26.8
2026/04/13 15:09:14.85,IMU,68.85,-30.76,-1024.41,-0.56,-1.48,2.18,59.85,3.00,-9.30,27.1
2026/04/13 15:09:14.95,IMU,51.27,-32.23,-1025.39,1.55,2.09,0.78,58.50,3.00,-10.35,26.9
2026/04/13 15:09:15.05,IMU,77.15,-16.11,-1025.39,0.69,2.08,0.44,58.95,2.10,-9.15,27.0
2026/04/13 15:09:15.15,IMU,59.08,-17.09,-1019.04,1.53,-1.07,-0.57,60.30,3.00,-8.55,26.7
2026/04/13 15:09:15.25,IMU,68.36,-26.37,-1012.70,1.62,-1.28,-0.29,58.80,4.95,-8.25,26.8
2026/04/13 15:09:15.35,IMU,56.64,-37.11,-1020.02,0.72,0.35,3.40,58.80,2.25,-8.55,26.6
2026/04/13 15:09:15.45,IMU,77.15,-17.58,-1013.18,0.40,-0.04,-0.50,58.80,2.55,-8.55,27.0
2026/04/13 15:09:15.55,IMU,71.78,-26.37,-1005.37,1.95,-3.02,-0.97,58.50,3.75,-8.25,27.0
2026/04/13 15:09:15.65,IMU,72.75,-16.11,-1012.21,0.62,4.15,-0.64,58.05,3.30,-9.30,26.9
2026/04/13 15:09:15.75,IMU,61.52,-32.71,-1005.86,-1.09,1.21,-1.29,58.20,3.15,-9.15,26.9
2026/04/13 15:09:15.85,IMU,66.41,-21.48,-1020.51,1.48,-2.37,-0.68,60.30,2.55,-10.05,26.7
2026/04/13 15:09:15.95,IMU,58.59,-13.67,-1013.67,2.40,2.15,0.75,60.30,2.55,-9.60,26.7
2026/04/13 15:09:16.05,IMU,55.18,-22.95,-1018.55,1.68,-0.08,2.80,58.95,3.60,-9.15,27.0
2026/04/13 15:09:16.15,IMU,67.87,-20.51,-1002.44,1.85,-0.31,1.53,59.10,3.00,-8.25,27.0
2026/04/13 15:09:16.25,IMU,72.27,-16.11,-1011.72,1.18,1.06,0.45,57.45,3.60,-8.10,26.9
2026/04/13 15:09:16.35,IMU,74.71,-41.50,-1020.02,2.53,0.23,0.57,59.10,2.25,-7.50,27.0
2026/04/13 15:09:16.45,IMU,74.22,-28.81,-1027.34,2.98,1.33,0.85,60.45,1.65,-9.45,26.8
2026/04/13 15:09:16.55,IMU,75.20,-23.44,-1020.02,1.31,1.57,-1.63,58.50,3.00,-9.60,27.1
2026/04/13 15:09:16.65,IMU,64.45,-23.93,-1017.58,0.66,1.06,-1.60,60.15,2.40,-9.45,26.8
2026/04/13 15:09:16.75,IMU,73.73,-25.39,-1010.25,1.36,0.97,-1.58,59.85,3.75,-9.30,26.8
2026/04/13 15:09:16.85,IMU,58.11,-17.09,-1008.79,0.37,3.54,0.47,59.10,2.55,-8.55,27.0
2026/04/13 15:09:16.95,IMU,71.29,-24.41,-1018.55,0.49,0.34,-3.31,59.55,1.05,-10.35,26.9
2026/04/13 15:09:17.05,IMU,65.43,-14.16,-1010.25,0.22,1.02,0.24,57.15,3.90,-9.90,26.9
2026/04/13 15:09:17.15,IMU,72.27,-14.65,-1021.00,0.97,-0.05,1.27,59.10,2.55,-9.30,26.8
2026/04/13 15:09:17.26,IMU,75.68,-36.62,-1016.11,1.40,3.70,0.15,58.95,3.15,-9.45,26.8
2026/04/13 15:09:17.36,IMU,66.41,-21.48,-1023.44,2.23,2.89,-0.28,60.30,3.00,-8.55,26.8
2026/04/13 15:09:17.46,IMU,63.96,-11.23,-1020.51,0.85,1.36,2.56,57.90,4.65,-10.20,27.0
2026/04/13 15:09:17.56,IMU,69.34,-21.00,-1022.95,2.07,0.25,-0.44,59.40,1.65,-8.40,26.8
2026/04/13 15:09:17.66,IMU,57.62,-17.09,-1027.83,0.90,4.83,0.45,59.10,3.30,-10.05,26.8
2026/04/13 15:09:17.76,IMU,68.36,-16.60,-1015.14,0.05,0.17,1.05,60.45,3.15,-9.45,26.6
2026/04/13 15:09:17.86,IMU,79.59,-21.00,-1018.07,1.92,0.56,1.18,59.55,4.50,-8.55,26.8
2026/04/13 15:09:17.96,IMU,66.41,-12.70,-1019.53,1.31,1.19,0.50,59.55,3.00,-8.25,27.0
2026/04/13 15:09:18.06,IMU,60.06,-28.32,-1022.46,0.57,2.18,2.52,59.55,1.80,-9.30,26.7
2026/04/13 15:09:18.16,IMU,74.71,-18.55,-1022.95,1.98,2.59,-1.41,59.40,3.90,-9.90,26.7
2026/04/13 15:09:18.26,IMU,72.75,-25.39,-1009.77,1.28,0.03,-1.58,59.70,3.60,-9.15,27.0
2026/04/13 15:09:18.36,IMU,66.41,-22.46,-1021.00,2.53,-0.24,-1.49,60.15,4.35,-7.65,26.8
2026/04/13 15:09:18.46,IMU,71.29,-27.83,-1020.02,-0.98,1.68,0.57,58.50,3.30,-9.30,26.9
2026/04/13 15:09:18.56,IMU,69.82,-21.48,-1023.44,1.73,0.15,0.21,58.95,3.15,-10.20,26.8
2026/04/13 15:09:18.66,IMU,76.17,-23.93,-1022.95,1.15,1.07,-1.26,60.60,3.00,-10.05,26.7
2026/04/13 15:09:18.76,IMU,70.31,-27.34,-1015.63,0.80,0.75,1.15,60.60,3.00,-8.25,27.1
2026/04/13 15:09:18.86,IMU,67.38,-11.23,-1027.83,2.29,1.76,-0.48,59.40,2.40,-9.15,26.8
2026/04/13 15:09:18.96,IMU,70.31,-18.07,-1007.32,3.08,2.28,0.92,60.15,3.60,-7.65,27.0
2026/04/13 15:09:19.06,IMU,71.29,-28.81,-1020.51,0.26,0.31,-0.74,59.40,3.60,-9.90,26.9
2026/04/13 15:09:19.16,IMU,65.92,-28.81,-1022.46,1.98,1.62,-1.33,58.20,3.60,-8.40,26.8
2026/04/13 15:09:19.26,IMU,67.38,-27.83,-1041.02,2.80,2.66,-1.08,58.95,3.90,-8.10,26.8
2026/04/13 15:09:19.36,IMU,190.92,-26.37,-1472.17,3.89,18.11,1.38,59.10,4.95,-9.30,26.9
2026/04/13 15:09:19.46,IMU,429.20,6.84,-1036.62,30.64,214.11,5.18,46.05,-0.45,-10.50,26.9
2026/04/13 15:09:19.56,IMU,496.09,-281.74,559.57,13.24,250.13,-4.29,16.65,-1.65,3.30,26.8
2026/04/13 15:09:19.66,IMU,-201.17,231.93,708.50,52.97,250.13,-56.06,7.50,2.40,34.80,26.9
2026/04/13 15:09:19.76,IMU,499.51,239.75,535.16,-29.54,99.05,10.99,18.75,4.95,59.55,27.0
2026/04/13 15:09:19.86,IMU,189.94,-60.06,1468.26,26.79,250.13,-32.74,28.20,4.50,67.05,26.9
2026/04/13 15:09:19.96,IMU,-49.80,-147.95,1744.14,-6.34,53.21,-3.21,35.10,6.60,68.25,26.8
2026/04/13 15:09:20.06,IMU,-35.16,-15.14,915.04,-0.73,3.00,8.45,34.20,7.95,63.15,26.8
2026/04/13 15:09:20.16,IMU,-16.11,18.07,992.68,0.55,0.73,3.49,32.85,5.85,62.55,27.0
2026/04/13 15:09:20.26,IMU,-37.11,9.77,988.77,0.66,1.36,1.92,33.90,6.60,63.30,26.8
2026/04/13 15:09:20.36,IMU,-46.39,2.93,1001.95,1.47,-0.40,-0.66,33.90,6.60,64.05,26.7
2026/04/13 15:09:20.46,IMU,-34.67,10.25,987.79,1.23,0.47,0.21,33.75,7.95,62.70,26.9
2026/04/13 15:09:20.56,IMU,-24.41,10.74,1000.98,1.37,0.11,0.83,33.60,5.85,62.55,27.0
2026/04/13 15:09:20.66,IMU,-27.34,12.21,1017.58,1.99,1.75,1.00,33.75,6.00,63.75,26.8
2026/04/13 15:09:20.76,IMU,-34.67,5.86,993.16,2.32,0.45,-1.09,31.20,3.30,67.05,26.9
2026/04/13 15:09:20.87,IMU,-35.64,25.39,1007.32,0.21,0.37,0.13,33.75,6.45,63.75,26.8
2026/04/13 15:09:20.97,IMU,-45.41,12.70,1000.98,2.85,2.11,-2.21,33.45,5.70,64.95,26.9
2026/04/13 15:09:21.07,IMU,-25.39,0.49,990.23,0.95,0.15,-0.82,32.25,8.70,63.75,26.9
2026/04/13 15:09:21.17,IMU,-27.83,3.91,997.07,2.92,0.52,-0.43,34.35,5.85,64.65,26.8
2026/04/13 15:09:21.27,IMU,-24.41,21.97,1007.81,1.10,0.40,1.45,33.00,6.00,62.40,27.3
2026/04/13 15:09:21.37,IMU,-31.74,17.58,990.23,0.47,0.73,0.33,32.70,7.20,63.75,26.9
2026/04/13 15:09:21.47,IMU,-27.34,5.37,996.58,0.59,2.37,1.44,33.75,5.70,64.20,27.0
2026/04/13 15:09:21.57,IMU,-40.04,9.77,995.12,2.27,-0.03,-0.78,33.45,5.70,63.75,26.9
2026/04/13 15:09:21.67,IMU,-34.18,19.04,1017.58,2.31,0.25,-1.12,33.60,7.05,64.05,27.1
2026/04/13 15:09:21.77,IMU,-21.00,6.35,997.07,0.11,1.73,1.85,35.25,6.75,62.40,27.2
2026/04/13 15:09:21.87,IMU,-38.57,11.23,998.05,1.43,0.15,0.53,34.95,7.95,63.45,26.8
2026/04/13 15:09:21.97,IMU,-45.90,15.14,986.33,0.41,1.15,-1.11,33.30,6.30,62.55,27.0
2026/04/13 15:09:22.07,IMU,-35.16,10.74,989.26,1.96,0.08,-0.94,33.75,6.00,62.70,27.0
2026/04/13 15:09:22.17,IMU,-32.71,6.84,991.21,2.81,-1.15,2.14,33.60,6.60,63.30,26.9
2026/04/13 15:09:22.27,IMU,-41.99,10.74,1012.21,1.53,1.56,0.07,33.45,6.00,64.95,26.8
2026/04/13 15:09:22.37,IMU,-27.83,16.11,998.05,0.47,-0.39,1.05,33.00,5.25,64.20,26.7
2026/04/13 15:09:22.47,IMU,-39.55,8.30,1004.39,2.39,0.27,2.20,33.45,7.50,63.15,27.0
2026/04/13 15:09:22.57,IMU,-41.02,14.16,996.58,0.30,1.69,2.08,33.45,7.20,62.70,26.7
2026/04/13 15:09:22.67,IMU,-32.71,10.25,1001.95,2.27,0.77,-0.46,33.30,7.05,63.30,27.0
2026/04/13 15:09:22.78,IMU,-30.76,11.23,997.56,2.96,-0.30,-0.63,33.45,6.00,63.15,26.9
2026/04/13 15:09:22.88,IMU,-36.62,6.84,1009.77,1.98,1.06,0.84,34.20,7.50,62.70,26.7
2026/04/13 15:09:22.98,IMU,-42.48,17.58,991.21,2.73,3.30,1.18,33.90,7.05,63.60,26.7
2026/04/13 15:09:23.08,IMU,-22.95,15.63,993.16,0.89,0.27,-0.89,33.00,6.00,64.50,27.0
2026/04/13 15:09:23.18,IMU,-40.04,10.74,996.09,0.35,0.18,0.40,33.60,7.80,64.05,27.1
2026/04/13 15:09:23.28,IMU,-31.74,7.81,1006.35,1.05,1.53,0.97,33.60,5.85,65.10,26.8
2026/04/13 15:09:23.38,IMU,-30.27,11.72,1014.65,3.56,2.46,0.66,33.45,7.95,64.20,26.9
2026/04/13 15:09:23.48,IMU,-25.88,11.72,1005.37,0.12,-0.63,2.10,32.85,6.30,63.30,27.0
2026/04/13 15:09:23.58,IMU,-32.71,4.39,991.21,0.85,-0.16,1.83,33.00,6.45,61.95,27.1
2026/04/13 15:09:23.68,IMU,-36.13,21.00,984.86,1.56,2.37,-0.85,34.65,6.60,63.30,27.1
2026/04/13 15:09:23.78,IMU,-21.00,7.32,996.58,1.85,1.42,1.70,33.60,6.60,64.35,26.8
2026/04/13 15:09:23.88,IMU,-26.86,-2.93,1004.88,1.10,3.08,-2.07,32.70,7.20,61.95,26.8
2026/04/13 15:09:23.98,IMU,-27.83,19.04,1006.84,1.89,2.34,-0.28,32.10,6.30,65.10,26.8
2026/04/13 15:09:24.08,IMU,-33.69,0.00,996.09,1.05,-1.29,0.78,33.60,7.35,62.25,26.8
2026/04/13 15:09:24.18,IMU,-34.67,16.60,1011.23,0.06,1.08,2.09,33.00,6.75,63.15,27.1
2026/04/13 15:09:24.28,IMU,-36.62,7.81,1000.49,0.55,0.12,-0.39,32.55,5.85,63.60,27.0
2026/04/13 15:09:24.38,IMU,-38.57,9.28,1003.91,1.94,0.65,2.14,32.85,6.60,64.35,26.9
2026/04/13 15:09:24.48,IMU,-44.43,2.93,993.65,3.09,1.73,0.15,32.70,7.20,63.75,26.9
2026/04/13 15:09:24.58,IMU,-29.30,1.46,1024.41,1.50,0.18,0.18,33.90,6.60,63.30,26.8
2026/04/13 15:09:24.68,IMU,-38.09,17.58,1000.98,0.85,0.82,-0.72,33.60,6.60,63.30,27.0
2026/04/13 15:09:24.78,IMU,-26.86,-0.98,1011.72,-0.66,1.08,-3.02,35.85,7.35,62.55,27.2
2026/04/13 15:09:24.89,IMU,-33.20,6.35,1017.58,1.52,0.20,0.63,33.00,6.45,62.70,26.7
2026/04/13 15:09:24.99,IMU,-30.27,17.58,1007.32,2.34,2.50,-0.61,33.90,6.60,64.05,26.8
2026/04/13 15:09:25.09,IMU,-30.76,6.35,1014.16,0.91,3.14,0.21,32.70,6.45,63.45,27.0
2026/04/13 15:09:25.19,IMU,-25.88,1.95,1000.98,-0.47,1.27,-0.65,33.45,6.45,62.70,27.0
2026/04/13 15:09:25.29,IMU,-27.34,10.25,999.02,1.74,0.56,0.82,33.00,7.20,62.40,27.0
2026/04/13 15:09:25.39,IMU,-25.39,5.86,1013.67,1.91,2.89,-0.27,33.75,7.20,62.70,27.0
2026/04/13 15:09:25.49,IMU,-40.53,14.16,991.21,-0.40,-0.63,3.35,31.80,7.05,64.05,27.0
2026/04/13 15:09:25.59,IMU,-39.55,16.11,1007.32,0.55,1.80,0.49,32.25,6.75,63.75,27.1
2026/04/13 15:09:25.69,IMU,-25.39,14.65,994.14,1.56,2.73,-0.64,33.75,7.20,64.20,26.9
2026/04/13 15:09:25.79,IMU,-33.69,18.07,1007.32,1.70,-0.11,-1.40,33.60,6.60,62.85,26.7
2026/04/13 15:09:25.89,IMU,-29.79,10.25,1000.49,2.25,1.04,-0.02,33.00,7.95,63.15,27.0
2026/04/13 15:09:25.99,IMU,-42.48,18.55,992.19,-0.11,1.89,0.95,32.10,7.35,63.60,26.8
2026/04/13 15:09:26.09,IMU,-47.85,-2.44,996.09,1.03,1.21,2.53,33.60,6.60,62.85,26.8
2026/04/13 15:09:26.19,IMU,-30.76,16.60,1002.44,1.15,1.34,1.33,32.85,7.05,63.60,27.0
2026/04/13 15:09:26.29,IMU,-38.57,0.49,991.21,0.65,3.23,-0.93,34.65,6.60,64.35,27.0
2026/04/13 15:09:26.39,IMU,-31.25,4.39,999.51,1.85,-0.99,1.18,33.60,6.60,63.30,26.8
2026/04/13 15:09:26.49,IMU,-31.74,0.00,995.61,0.55,-0.94,-0.82,33.60,7.80,63.30,27.0
2026/04/13 15:09:26.59,IMU,-26.86,6.84,993.16,0.99,1.05,-2.05,32.70,6.75,62.70,27.0
2026/04/13 15:09:26.69,IMU,-36.62,14.65,1006.35,1.40,-0.50,1.71,33.30,7.05,62.85,27.1
2026/04/13 15:09:26.79,IMU,-46.88,21.00,994.63,1.58,-0.16,-0.51,32.85,5.85,62.55,27.1
2026/04/13 15:09:26.89,IMU,-26.37,13.18,997.56,1.46,1.78,0.47,32.25,7.95,63.45,27.0
2026/04/13 15:09:26.99,IMU,-32.71,5.37,992.19,1.47,-1.57,0.45,34.35,7.35,61.80,26.8
2026/04/13 15:09:27.09,IMU,-32.71,9.77,992.68,-0.21,1.36,1.76,33.45,7.20,62.70,27.3
2026/04/13 15:09:27.19,IMU,-38.57,18.55,1000.49,0.73,1.23,2.30,34.35,6.30,63.60,26.8
2026/04/13 15:09:27.29,IMU,-29.79,15.63,1009.77,1.79,3.15,0.50,32.55,7.35,63.60,27.0
2026/04/13 15:09:27.39,IMU,-22.95,28.32,1008.79,1.02,2.46,1.18,33.90,5.85,62.25,27.0
2026/04/13 15:09:27.49,IMU,-33.69,12.21,1016.11,2.76,0.03,0.66,32.85,5.85,64.65,26.8
2026/04/13 15:09:27.59,IMU,-31.74,19.53,1002.93,3.20,0.16,0.34,32.70,7.50,63.45,26.8
2026/04/13 15:09:27.69,IMU,-32.71,-4.39,991.21,1.57,1.09,1.82,33.90,7.80,63.30,26.8
2026/04/13 15:09:27.79,IMU,-40.04,6.84,993.16,2.71,1.47,-0.18,32.25,7.95,64.20,27.0
2026/04/13 15:09:27.89,IMU,-23.44,16.60,1006.84,2.08,1.15,-2.01,33.75,6.75,63.45,27.1
2026/04/13 15:09:27.99,IMU,-26.86,14.16,1010.25,1.53,0.72,-0.05,33.00,6.75,64.20,26.8
2026/04/13 15:09:28.09,IMU,-40.04,3.91,1007.81,1.35,1.17,0.58,33.90,7.05,64.35,26.9
2026/04/13 15:09:28.19,IMU,-34.67,2.93,1010.25,2.33,0.24,-0.25,32.70,7.95,63.75,26.9
2026/04/13 15:09:28.29,IMU,-28.32,6.84,989.75,2.84,0.63,0.50,32.55,7.05,64.35,26.6
2026/04/13 15:09:28.39,IMU,-27.83,9.77,1001.95,0.27,0.34,0.74,33.75,5.70,63.15,26.8
2026/04/13 15:09:28.49,IMU,-32.23,16.60,986.33,0.02,0.79,0.11,33.75,7.95,62.70,27.0
2026/04/13 15:09:28.60,IMU,-38.09,22.95,1004.39,-0.72,2.10,-0.52,33.30,6.60,64.65,26.8
2026/04/13 15:09:28.70,IMU,-25.88,1.46,1000.49,-0.31,1.76,2.21,32.55,6.60,63.60,26.8
2026/04/13 15:09:28.80,IMU,-38.09,5.37,1010.74,1.75,1.74,1.81,34.50,6.75,63.15,27.1
2026/04/13 15:09:28.90,IMU,-35.16,7.81,993.65,2.12,0.46,2.54,29.70,4.95,66.30,27.1
2026/04/13 15:09:29.00,IMU,-30.27,12.21,996.58,0.96,0.10,0.73,32.25,6.75,63.15,26.8
2026/04/13 15:09:29.10,IMU,-32.23,14.65,1006.84,-1.48,1.80,1.69,33.60,6.30,62.55,26.8
2026/04/13 15:09:29.20,IMU,-28.81,7.81,1000.00,-1.51,1.10,-0.40,34.50,6.45,63.15,27.0
2026/04/13 15:09:29.30,IMU,-28.32,5.37,989.26,-0.69,0.79,0.69,33.90,6.30,64.65,26.8
2026/04/13 15:09:29.40,IMU,-28.32,5.86,985.84,1.37,0.14,0.34,33.00,5.70,62.70,27.1
2026/04/13 15:09:29.50,IMU,-41.02,12.70,998.54,1.02,2.53,0.16,33.00,6.75,63.15,27.1
2026/04/13 15:09:29.60,IMU,-29.30,11.23,984.38,-0.08,0.97,-0.22,32.85,6.60,64.35,26.8
2026/04/13 15:09:29.70,IMU,-19.04,10.25,990.23,0.66,1.89,1.16,33.45,6.45,63.45,26.9
2026/04/13 15:09:29.80,IMU,-31.25,27.34,990.23,0.07,-0.05,-0.33,32.85,7.35,63.30,27.0
2026/04/13 15:09:29.90,IMU,-28.32,4.88,1009.77,2.10,2.27,1.50,31.95,2.55,67.35,27.0
2026/04/13 15:09:30.00,IMU,-24.41,-4.39,992.68,0.09,1.67,0.12,32.55,6.60,63.30,26.8
2026/04/13 15:09:30.10,IMU,-32.23,15.63,1006.84,0.07,0.23,-1.32,33.90,7.80,63.60,27.0
2026/04/13 15:09:30.20,IMU,-33.20,23.44,1030.27,0.33,1.02,0.22,32.85,5.40,61.80,26.8
2026/04/13 15:09:30.30,IMU,-39.55,17.58,960.94,2.49,0.52,0.49,33.30,8.10,64.65,26.8
2026/04/13 15:09:30.40,IMU,-48.83,5.86,1002.44,2.77,0.41,3.78,33.30,5.10,62.25,26.8
2026/04/13 15:09:30.50,IMU,-47.85,15.14,1000.00,0.80,-1.24,1.34,33.60,6.30,63.60,27.0
2026/04/13 15:09:30.60,IMU,-21.00,10.74,1010.74,0.40,-0.69,1.69,34.65,6.60,64.35,26.6
2026/04/13 15:09:30.70,IMU,-30.27,16.11,994.63,0.75,2.12,-0.01,32.85,5.85,63.30,27.0
2026/04/13 15:09:30.80,IMU,-31.25,-4.88,1012.21,2.29,1.53,2.29,35.25,6.00,62.40,26.9
2026/04/13 15:09:30.91,IMU,-28.32,17.09,1003.91,1.49,1.15,-0.46,33.30,5.40,64.65,27.2
2026/04/13 15:09:31.01,IMU,-30.27,9.28,977.54,0.60,2.15,0.76,33.90,7.35,63.30,27.1
2026/04/13 15:09:31.11,IMU,-33.69,1.95,1009.28,1.20,2.03,1.51,33.75,6.00,63.15,27.1
2026/04/13 15:09:31.21,IMU,-27.83,14.16,998.05,0.95,0.63,1.74,34.35,7.35,62.85,26.8
2026/04/13 15:09:31.31,IMU,-15.14,4.39,1009.28,1.25,0.32,-1.48,32.55,7.05,62.55,27.1
2026/04/13 15:09:31.41,IMU,-35.16,15.14,997.07,1.22,-0.53,-1.19,33.45,7.95,63.15,26.8
2026/04/13 15:09:31.51,IMU,-31.74,1.46,1001.95,2.60,0.87,-1.38,33.75,5.70,63.15,27.0
2026/04/13 15:09:31.61,IMU,-35.64,2.44,996.58,2.63,-0.61,1.74,31.80,6.30,65.10,27.0
2026/04/13 15:09:31.71,IMU,-36.62,20.51,994.63,1.60,0.37,-0.58,33.30,8.55,63.30,27.0
2026/04/13 15:09:31.81,IMU,-44.43,3.42,1000.49,2.05,2.19,-0.70,33.00,5.70,64.20,26.9
2026/04/13 15:09:31.91,IMU,-26.37,10.74,986.33,3.18,1.70,1.66,31.20,4.95,63.75,27.0
