Timestamp,Sensor,AccX,AccY,AccZ,GyrX,GyrY,GyrZ,MagX,MagY,MagZ,Temp
2026/04/13 15:22:07.00,IMU,15.14,30.27,-1016.11,1.32,0.76,-0.06,6.90,-16.35,-33.45,25.3
2026/04/13 15:22:07.10,IMU,-5.86,26.86,-1019.53,1.55,1.92,-1.69,6.90,-16.35,-32.70,25.4
2026/04/13 15:22:07.20,IMU,-6.35,32.23,-1017.09,1.31,0.29,-1.46,5.10,-17.55,-32.10,25.4
2026/04/13 15:22:07.30,IMU,-9.28,39.06,-1024.41,1.81,0.18,0.69,6.75,-16.20,-30.75,25.2
2026/04/13 15:22:07.40,IMU,5.86,31.74,-1015.14,0.94,0.74,-0.49,8.55,-15.75,-29.70,25.3
2026/04/13 15:22:07.50,IMU,7.32,31.74,-1017.58,1.82,-0.75,2.17,6.60,-16.80,-30.90,25.2
2026/04/13 15:22:07.60,IMU,-1.46,29.30,-1014.65,1.16,0.78,0.52,6.00,-15.45,-32.25,25.4
2026/04/13 15:22:07.70,IMU,-8.30,22.46,-1008.79,1.76,2.67,-0.34,5.70,-16.95,-32.55,25.4
2026/04/13 15:22:07.80,IMU,-0.49,25.88,-1002.44,1.31,1.56,1.04,7.05,-15.45,-32.55,25.7
2026/04/13 15:22:07.90,IMU,-3.42,27.83,-1010.25,1.11,3.31,-1.19,6.75,-15.45,-31.50,25.4
2026/04/13 15:22:08.00,IMU,-3.42,40.53,-1021.00,4.15,0.67,0.56,7.05,-15.45,-32.25,25.4
2026/04/13 15:22:08.10,IMU,-0.49,22.46,-1003.42,0.44,0.94,1.12,6.00,-14.25,-33.00,25.1
2026/04/13 15:22:08.20,IMU,5.37,31.74,-1021.00,0.65,3.18,1.73,6.60,-16.35,-32.40,25.4
2026/04/13 15:22:08.30,IMU,5.37,32.71,-1010.74,1.76,0.73,-1.89,6.60,-16.35,-30.30,25.3
2026/04/13 15:22:08.40,IMU,-3.91,33.69,-1019.04,-0.47,1.36,0.63,6.90,-15.15,-32.10,25.4
2026/04/13 15:22:08.50,IMU,4.88,21.00,-1010.74,-0.53,-0.33,3.12,6.90,-15.90,-32.70,25.4
2026/04/13 15:22:08.60,IMU,-0.49,21.00,-1016.60,0.64,1.27,1.51,6.60,-17.10,-32.10,25.5
2026/04/13 15:22:08.70,IMU,0.00,30.27,-1018.55,2.49,-0.03,3.03,6.30,-16.20,-32.25,25.3
2026/04/13 15:22:08.80,IMU,11.23,39.06,-1021.48,0.38,-0.11,1.80,6.75,-15.75,-32.25,25.3
2026/04/13 15:22:08.90,IMU,-12.70,33.20,-1018.55,1.25,1.73,0.02,6.15,-15.60,-31.35,25.2
2026/04/13 15:22:09.00,IMU,9.77,29.30,-1010.25,0.76,2.89,1.73,5.85,-15.15,-31.35,25.7
2026/04/13 15:22:09.11,IMU,-0.98,21.48,-1014.65,1.63,0.74,-0.45,6.15,-15.90,-32.40,25.4
2026/04/13 15:22:09.21,IMU,0.00,32.71,-1016.11,0.66,1.21,-0.60,6.60,-15.15,-31.35,25.3
2026/04/13 15:22:09.31,IMU,4.88,30.27,-1016.11,-0.15,0.68,-1.24,6.15,-16.80,-32.10,25.5
2026/04/13 15:22:09.41,IMU,0.98,27.83,-1020.51,1.02,-0.34,0.33,5.70,-13.50,-30.45,25.4
2026/04/13 15:22:09.51,IMU,5.86,31.74,-1001.95,0.19,-0.79,-1.93,7.65,-14.85,-31.65,25.4
2026/04/13 15:22:09.61,IMU,0.00,23.93,-1015.63,0.85,0.38,0.89,6.00,-14.25,-31.50,25.4
2026/04/13 15:22:09.71,IMU,-8.30,35.16,-1020.02,1.27,1.21,1.15,5.85,-15.90,-31.65,25.4
2026/04/13 15:22:09.81,IMU,-0.49,22.46,-1009.28,3.45,-0.34,-0.44,6.15,-16.35,-32.10,25.4
2026/04/13 15:22:09.91,IMU,-14.65,31.74,-1021.00,2.31,0.18,0.95,6.60,-15.15,-31.35,25.3
2026/04/13 15:22:10.01,IMU,4.39,34.67,-1016.11,1.75,-1.46,1.44,5.70,-16.20,-31.80,25.4
2026/04/13 15:22:10.11,IMU,4.39,21.00,-1006.84,0.85,2.23,1.20,7.95,-14.85,-31.35,25.3
2026/04/13 15:22:10.21,IMU,8.79,27.34,-1018.07,1.79,-1.07,1.56,6.00,-15.75,-32.25,25.4
2026/04/13 15:22:10.31,IMU,-5.37,34.67,-1002.44,3.18,-0.08,-1.49,7.05,-15.00,-31.80,25.4
2026/04/13 15:22:10.41,IMU,4.88,27.83,-1027.83,0.21,0.34,1.82,6.60,-15.15,-31.35,25.4
2026/04/13 15:22:10.51,IMU,0.00,29.30,-1017.09,-0.83,-0.79,0.21,7.35,-15.15,-31.35,25.3
2026/04/13 15:22:10.61,IMU,0.00,27.83,-1010.25,1.98,0.53,-0.02,5.25,-16.20,-31.20,25.4
2026/04/13 15:22:10.71,IMU,-2.44,31.25,-1021.00,1.31,0.07,-0.63,7.05,-16.95,-31.80,25.4
2026/04/13 15:22:10.81,IMU,-0.49,29.79,-1020.51,0.37,0.34,1.37,6.75,-15.45,-30.75,25.4
2026/04/13 15:22:10.91,IMU,11.23,18.55,-1010.74,2.76,1.74,2.27,5.10,-15.60,-31.35,25.4
2026/04/13 15:22:11.01,IMU,-4.88,34.18,-1015.14,1.62,2.06,2.48,6.00,-15.45,-32.55,25.5
2026/04/13 15:22:11.11,IMU,1.46,32.71,-1008.79,0.60,2.89,-1.20,3.30,-16.80,-27.75,25.6
2026/04/13 15:22:11.21,IMU,-6.84,21.97,-1027.83,2.15,1.09,0.52,6.30,-15.45,-31.50,25.4
2026/04/13 15:22:11.31,IMU,1.46,29.30,-1023.93,3.43,1.11,-0.36,6.75,-15.45,-31.50,25.6
2026/04/13 15:22:11.41,IMU,-2.93,33.20,-1012.21,0.95,1.68,0.22,7.05,-17.70,-31.20,25.5
2026/04/13 15:22:11.51,IMU,8.30,20.02,-1008.30,2.62,1.53,-2.37,7.35,-15.60,-31.35,25.4
2026/04/13 15:22:11.61,IMU,0.49,31.25,-1024.41,2.04,2.42,-0.69,6.00,-15.45,-30.75,25.6
2026/04/13 15:22:11.71,IMU,9.77,18.55,-1020.02,2.17,1.18,2.24,6.75,-16.20,-31.20,25.5
2026/04/13 15:22:11.81,IMU,0.49,24.90,-1019.53,1.82,3.31,-0.54,6.60,-16.80,-30.90,25.6
2026/04/13 15:22:11.91,IMU,9.77,34.18,-1019.53,1.72,3.12,-2.37,7.50,-14.70,-32.55,25.4
2026/04/13 15:22:12.01,IMU,10.74,35.16,-1018.55,2.34,2.66,2.15,6.90,-15.90,-31.35,25.4
2026/04/13 15:22:12.11,IMU,2.44,40.53,-1012.70,0.79,-0.67,-0.34,4.65,-18.60,-28.05,25.5
2026/04/13 15:22:12.21,IMU,0.00,29.79,-1020.51,1.21,1.48,0.50,7.50,-15.00,-32.25,25.6
2026/04/13 15:22:12.31,IMU,8.30,28.81,-1015.14,3.42,1.33,-0.78,7.05,-16.50,-31.80,25.5
2026/04/13 15:22:12.41,IMU,-1.95,26.86,-1015.14,0.42,3.29,0.83,6.00,-15.75,-32.55,25.8
2026/04/13 15:22:12.51,IMU,7.32,31.74,-1026.86,2.00,0.11,-0.18,7.35,-16.80,-30.90,25.4
2026/04/13 15:22:12.61,IMU,-2.44,33.20,-1020.51,1.38,-1.23,-0.74,6.30,-14.25,-31.50,25.4
2026/04/13 15:22:12.71,IMU,3.91,33.69,-1006.84,1.46,0.68,-1.66,7.35,-15.15,-33.45,25.5
2026/04/13 15:22:12.81,IMU,0.00,19.53,-1009.77,2.27,2.66,-0.31,7.05,-16.20,-33.00,25.3
2026/04/13 15:22:12.91,IMU,3.91,39.55,-1008.30,1.00,-2.32,-2.99,6.00,-15.00,-32.55,25.6
2026/04/13 15:22:13.01,IMU,6.84,42.97,-1012.70,1.22,1.46,0.06,6.60,-16.35,-32.40,25.4
2026/04/13 15:22:13.11,IMU,15.14,24.90,-1017.09,1.52,1.92,0.04,6.75,-15.00,-33.00,25.6
2026/04/13 15:22:13.21,IMU,-0.98,16.11,-1026.86,0.32,1.63,-0.69,5.85,-15.60,-32.70,25.4
2026/04/13 15:22:13.32,IMU,1.46,29.79,-1011.23,1.32,1.33,-0.74,5.85,-16.35,-32.10,25.4
2026/04/13 15:22:13.42,IMU,-5.86,22.95,-1012.70,-0.24,0.79,-1.03,6.90,-16.35,-32.70,25.4
2026/04/13 15:22:13.52,IMU,5.86,24.90,-1019.53,0.37,0.05,-0.26,6.15,-15.15,-32.40,25.3
2026/04/13 15:22:13.62,IMU,0.49,25.88,-1013.18,-0.40,1.15,-0.72,6.15,-15.15,-31.35,25.7
2026/04/13 15:22:13.72,IMU,4.88,32.23,-1019.04,-0.40,-0.09,1.14,7.50,-16.50,-31.80,25.3
2026/04/13 15:22:13.82,IMU,0.49,35.64,-1017.09,1.47,2.10,0.64,7.35,-16.35,-32.10,25.4
2026/04/13 15:22:13.92,IMU,-0.49,32.71,-1014.65,0.64,-0.10,-0.02,6.90,-15.90,-31.35,25.6
2026/04/13 15:22:14.02,IMU,-3.91,28.32,-1015.14,0.37,4.24,1.62,6.30,-15.00,-30.45,25.3
2026/04/13 15:22:14.12,IMU,-7.32,25.88,-1020.02,0.79,0.34,-0.53,6.30,-15.00,-31.20,25.7
2026/04/13 15:22:14.22,IMU,12.21,32.23,-1014.65,2.11,0.47,-0.31,7.35,-16.35,-32.40,25.4
2026/04/13 15:22:14.32,IMU,0.00,27.34,-1008.30,0.11,0.00,0.02,6.60,-15.90,-30.90,25.4
2026/04/13 15:22:14.42,IMU,-1.95,30.76,-1015.14,1.56,0.24,-1.08,6.15,-15.60,-30.90,25.3
2026/04/13 15:22:14.52,IMU,-5.37,37.11,-1009.77,1.65,1.56,0.93,7.35,-15.90,-31.35,25.4
2026/04/13 15:22:14.62,IMU,0.98,23.44,-1017.58,0.50,0.66,0.00,7.05,-15.00,-32.25,25.4
2026/04/13 15:22:14.72,IMU,1.95,27.34,-1023.44,1.71,-0.99,2.54,6.75,-14.70,-31.80,25.6
2026/04/13 15:22:14.82,IMU,-3.42,27.83,-1020.02,1.83,1.69,-0.20,5.70,-15.45,-31.20,25.4
2026/04/13 15:22:14.92,IMU,-3.42,29.30,-1012.21,3.24,0.59,1.80,7.05,-14.25,-32.55,25.6
2026/04/13 15:22:15.02,IMU,-1.95,30.27,-1006.35,2.30,0.29,0.48,6.00,-15.75,-32.55,25.4
2026/04/13 15:22:15.12,IMU,9.77,36.13,-1004.39,0.44,1.70,-1.11,7.35,-16.35,-32.40,25.7
2026/04/13 15:22:15.22,IMU,1.46,44.92,-1016.60,0.88,1.09,-0.45,5.85,-16.35,-31.35,25.6
2026/04/13 15:22:15.32,IMU,-10.74,36.62,-1014.65,1.02,-0.13,-0.44,5.25,-15.00,-31.50,25.7
2026/04/13 15:22:15.42,IMU,-3.42,30.76,-1016.60,1.50,0.63,2.24,6.90,-15.15,-32.70,25.4
2026/04/13 15:22:15.52,IMU,1.95,42.97,-1021.00,1.24,-0.08,0.33,6.00,-15.00,-31.50,25.7
2026/04/13 15:22:15.62,IMU,6.84,25.39,-1009.28,0.91,-1.63,-0.80,6.30,-13.80,-32.25,25.4
2026/04/13 15:22:15.72,IMU,-1.95,34.18,-1002.93,1.75,-0.48,-2.20,5.85,-14.85,-30.60,25.6
2026/04/13 15:22:15.82,IMU,0.00,35.16,-1008.30,1.24,0.66,2.01,7.95,-14.40,-31.65,25.7
2026/04/13 15:22:15.92,IMU,1.95,20.51,-1009.28,1.08,-0.09,-0.24,7.35,-15.60,-31.65,25.8
2026/04/13 15:22:16.02,IMU,3.42,19.53,-1019.04,1.63,3.52,0.38,6.60,-15.60,-32.40,25.7
2026/04/13 15:22:16.12,IMU,4.39,19.04,-1021.97,2.38,-0.20,-1.22,5.85,-15.15,-30.90,25.7
2026/04/13 15:22:16.22,IMU,3.91,36.13,-1026.86,0.43,0.09,0.43,6.30,-15.00,-33.00,25.7
2026/04/13 15:22:16.32,IMU,13.18,27.34,-1013.67,2.23,2.36,1.56,6.00,-14.25,-31.80,25.5
2026/04/13 15:22:16.42,IMU,-0.49,36.13,-1020.02,0.89,1.94,0.11,5.40,-13.65,-32.40,25.5
2026/04/13 15:22:16.52,IMU,-9.28,30.27,-1027.83,-0.38,2.91,1.52,7.95,-15.15,-31.35,25.5
2026/04/13 15:22:16.62,IMU,-8.30,31.25,-1009.77,0.89,1.21,0.03,6.30,-15.45,-31.50,25.4
2026/04/13 15:22:16.72,IMU,-2.93,33.20,-1018.55,1.75,-0.44,-0.47,7.65,-15.15,-30.60,25.4
2026/04/13 15:22:16.82,IMU,1.46,35.64,-1005.86,1.49,-0.45,0.32,6.60,-14.40,-31.65,25.4
2026/04/13 15:22:16.92,IMU,0.98,32.23,-1012.70,2.86,1.40,0.26,5.85,-14.40,-31.65,25.6
2026/04/13 15:22:17.02,IMU,-1.95,35.64,-1021.48,0.43,2.50,-1.26,6.60,-15.15,-32.40,25.4
2026/04/13 15:22:17.12,IMU,-11.23,27.34,-1018.55,0.35,2.11,2.74,5.85,-14.40,-31.35,25.3
2026/04/13 15:22:17.22,IMU,1.95,41.50,-1016.11,3.12,2.45,-0.30,7.65,-15.15,-30.60,25.4
2026/04/13 15:22:17.32,IMU,-13.18,29.30,-1012.70,0.18,2.06,0.63,5.70,-16.50,-31.20,25.5
2026/04/13 15:22:17.42,IMU,9.28,28.32,-1016.60,1.44,2.05,1.61,6.30,-16.50,-32.25,25.3
2026/04/13 15:22:17.52,IMU,16.60,26.86,-1021.00,-0.19,3.07,0.34,7.50,-15.00,-33.00,25.5
2026/04/13 15:22:17.62,IMU,-0.49,31.25,-1009.28,1.82,0.26,0.55,5.70,-15.45,-33.00,25.7
2026/04/13 15:22:17.72,IMU,14.65,30.27,-1024.90,0.77,3.53,-0.05,6.30,-14.70,-33.30,25.7
2026/04/13 15:22:17.82,IMU,4.39,47.85,-1020.51,3.53,1.65,-1.02,7.35,-15.60,-32.10,25.7
2026/04/13 15:22:17.92,IMU,0.00,25.39,-1008.30,1.48,0.72,1.59,5.25,-15.00,-31.80,25.7
2026/04/13 15:22:18.02,IMU,12.70,24.41,-1017.58,0.63,-0.05,1.84,7.35,-14.85,-32.70,25.6
2026/04/13 15:22:18.12,IMU,8.30,12.70,-1013.67,-0.24,1.29,-0.45,6.30,-15.75,-31.80,25.4
2026/04/13 15:22:18.22,IMU,2.44,31.74,-1005.86,0.51,0.45,-0.74,2.70,-18.00,-27.90,25.7
2026/04/13 15:22:18.32,IMU,9.28,21.00,-1026.37,-0.20,0.77,0.43,7.65,-14.40,-30.90,25.6
2026/04/13 15:22:18.42,IMU,-4.88,26.37,-1004.88,0.96,1.13,-0.32,6.15,-14.40,-32.10,25.3
2026/04/13 15:22:18.53,IMU,0.49,24.41,-1010.74,1.24,-0.35,1.70,6.75,-12.75,-32.25,25.7
2026/04/13 15:22:18.63,IMU,8.79,34.67,-1033.20,1.47,0.85,-0.51,6.60,-15.90,-30.90,25.6
2026/04/13 15:22:18.73,IMU,4.88,26.86,-1025.88,1.74,1.83,0.33,6.15,-15.60,-31.65,25.5
2026/04/13 15:22:18.83,IMU,-0.98,29.30,-1011.72,0.47,0.39,0.82,6.75,-14.25,-30.75,25.6
2026/04/13 15:22:18.93,IMU,9.77,35.64,-1014.16,-0.12,-0.62,-2.17,6.30,-16.20,-33.30,25.6
2026/04/13 15:22:19.03,IMU,-11.72,34.67,-1014.65,1.41,0.89,-0.91,8.40,-14.85,-30.90,25.4
2026/04/13 15:22:19.13,IMU,-14.65,26.86,-1019.53,1.05,0.47,-0.04,6.15,-14.85,-32.40,25.7
2026/04/13 15:22:19.24,IMU,14.65,20.02,-1012.21,3.18,2.98,-0.21,2.85,-18.60,-25.95,25.7
2026/04/13 15:22:19.34,IMU,-5.86,20.51,-1011.23,1.70,-0.15,-0.44,6.00,-16.50,-31.20,25.4
2026/04/13 15:22:19.44,IMU,-0.98,31.74,-1016.60,1.74,1.41,0.89,4.95,-16.95,-31.20,25.4
2026/04/13 15:22:19.54,IMU,-11.72,27.34,-1015.14,0.85,0.56,1.30,5.25,-15.45,-31.80,25.7
2026/04/13 15:22:19.64,IMU,4.88,25.39,-1012.70,2.45,1.47,1.21,6.15,-16.35,-31.35,25.6
2026/04/13 15:22:19.74,IMU,-7.32,28.81,-1017.09,0.06,0.06,0.51,5.85,-15.60,-30.90,25.4
2026/04/13 15:22:19.84,IMU,7.32,27.34,-1018.07,2.23,0.36,-0.15,6.90,-15.15,-32.40,25.4
2026/04/13 15:22:19.94,IMU,-0.98,29.79,-1013.67,0.72,2.14,0.12,6.00,-14.25,-29.70,25.4
2026/04/13 15:22:20.04,IMU,3.91,27.34,-1017.09,0.91,0.98,1.08,6.00,-16.20,-32.55,25.7
2026/04/13 15:22:20.14,IMU,-9.77,12.21,-1024.41,-0.92,1.37,-0.81,5.70,-15.75,-31.50,25.7
2026/04/13 15:22:20.24,IMU,-2.93,35.16,-1015.63,1.67,1.24,1.38,6.30,-16.20,-31.80,25.7
2026/04/13 15:22:20.34,IMU,5.37,27.83,-1022.95,0.15,2.02,-0.50,7.65,-16.35,-32.40,25.6
2026/04/13 15:22:20.44,IMU,5.86,42.48,-1021.48,-0.02,-0.50,-0.50,6.75,-15.00,-31.20,25.6
2026/04/13 15:22:20.54,IMU,4.88,34.67,-1020.51,1.72,1.24,1.21,6.30,-16.20,-30.75,25.8
2026/04/13 15:22:20.64,IMU,-1.95,26.86,-1018.55,0.69,1.50,-1.61,6.90,-14.10,-32.40,25.8
2026/04/13 15:22:20.74,IMU,8.30,30.27,-1021.97,0.53,2.08,-0.08,5.40,-15.60,-31.35,25.4
2026/04/13 15:22:20.84,IMU,2.44,35.64,-1011.72,1.76,0.88,-1.21,7.05,-14.70,-31.80,25.6
2026/04/13 15:22:20.94,IMU,5.37,32.71,-1002.93,-1.40,-1.34,-0.64,7.35,-15.90,-30.30,25.7
2026/04/13 15:22:21.04,IMU,-2.44,19.04,-1010.74,-0.73,1.21,-1.04,5.70,-16.50,-30.75,25.8
2026/04/13 15:22:21.14,IMU,7.81,37.60,-1017.58,1.72,2.74,0.11,6.00,-15.00,-32.25,25.5
2026/04/13 15:22:21.24,IMU,-10.25,41.99,-1019.53,1.35,1.07,0.30,6.60,-16.35,-30.90,25.5
2026/04/13 15:22:21.34,IMU,4.39,39.06,-1001.46,1.56,1.16,1.03,7.65,-15.15,-32.10,25.6
2026/04/13 15:22:21.45,IMU,-4.88,40.04,-1015.14,2.95,0.53,1.53,6.00,-15.45,-31.80,25.7
2026/04/13 15:22:21.55,IMU,11.23,33.20,-1013.67,0.36,0.56,0.37,5.10,-15.60,-31.65,25.6
2026/04/13 15:22:21.65,IMU,-2.93,23.93,-1021.00,1.25,-0.71,0.85,5.85,-17.10,-31.35,25.7
2026/04/13 15:22:21.75,IMU,-2.93,25.88,-1028.32,0.93,0.40,-0.84,4.20,-15.45,-31.20,25.7
2026/04/13 15:22:21.85,IMU,13.67,30.76,-1012.70,0.10,0.40,-0.52,6.90,-15.60,-31.65,25.9
2026/04/13 15:22:21.95,IMU,2.44,34.67,-1011.72,0.25,2.00,0.93,6.60,-14.40,-32.10,25.6
2026/04/13 15:22:22.05,IMU,2.93,36.13,-1018.55,0.21,2.82,0.05,7.05,-15.00,-31.20,25.5
2026/04/13 15:22:22.15,IMU,2.93,41.02,-1022.46,1.55,2.70,-1.11,5.85,-14.85,-31.65,25.4
2026/04/13 15:22:22.25,IMU,9.77,29.30,-1013.18,3.05,-0.12,0.88,6.75,-15.75,-32.25,25.5
2026/04/13 15:22:22.35,IMU,-2.44,37.11,-1003.42,2.51,0.13,0.53,6.15,-14.85,-32.70,25.7
2026/04/13 15:22:22.45,IMU,0.49,24.90,-1004.88,1.72,1.89,0.51,7.35,-15.15,-30.90,25.5
2026/04/13 15:22:22.55,IMU,0.98,28.32,-1012.70,2.69,0.93,1.58,6.60,-16.35,-31.35,25.5
2026/04/13 15:22:22.65,IMU,11.23,30.27,-1014.65,1.31,2.24,1.63,8.25,-15.75,-32.55,25.7
2026/04/13 15:22:22.75,IMU,-1.46,20.51,-1028.81,0.82,0.35,0.53,7.05,-15.75,-31.20,25.7
2026/04/13 15:22:22.85,IMU,3.91,29.79,-1012.21,1.50,0.05,0.82,5.85,-15.60,-31.35,25.7
2026/04/13 15:22:22.95,IMU,6.84,45.41,-1011.72,0.93,-1.18,-1.92,7.05,-16.20,-32.55,25.6
2026/04/13 15:22:23.05,IMU,7.81,36.13,-1022.46,-0.43,3.37,-4.05,6.00,-15.45,-32.55,25.4
2026/04/13 15:22:23.15,IMU,5.86,36.13,-1005.86,0.68,1.60,0.03,7.35,-16.80,-30.60,25.7
2026/04/13 15:22:23.25,IMU,-5.86,24.90,-999.51,0.30,2.15,0.58,7.95,-15.15,-32.10,25.4
2026/04/13 15:22:23.35,IMU,2.93,23.44,-1029.30,1.87,1.37,2.34,7.05,-15.00,-31.80,25.3
2026/04/13 15:22:23.45,IMU,2.93,28.32,-1025.39,0.68,2.15,-1.81,6.15,-14.10,-30.30,25.9
2026/04/13 15:22:23.55,IMU,-0.98,26.37,-1013.67,2.32,3.39,-1.63,7.35,-16.35,-30.30,25.8
2026/04/13 15:22:23.65,IMU,14.65,37.60,-1021.48,0.91,0.27,0.46,7.35,-15.60,-31.65,25.7
2026/04/13 15:22:23.75,IMU,18.55,26.37,-1027.34,-0.43,2.00,1.46,6.75,-15.45,-32.25,25.7
2026/04/13 15:22:23.85,IMU,8.30,26.86,-1008.79,0.18,0.60,-0.72,6.90,-16.80,-32.40,25.7
2026/04/13 15:22:23.95,IMU,0.98,38.09,-1011.72,0.76,1.63,0.44,5.70,-15.45,-31.50,25.7
2026/04/13 15:22:24.05,IMU,1.46,24.41,-1021.00,-0.02,1.34,-2.24,6.15,-15.90,-31.65,25.8
2026/04/13 15:22:24.15,IMU,9.77,25.39,-1011.72,2.18,2.05,-1.58,7.50,-16.50,-31.20,25.6
2026/04/13 15:22:24.25,IMU,-0.49,22.95,-1026.37,2.08,0.75,2.56,7.50,-16.95,-30.45,25.5
2026/04/13 15:22:24.35,IMU,0.49,28.81,-1005.37,2.49,0.42,1.78,6.00,-15.75,-32.25,25.7
2026/04/13 15:22:24.45,IMU,-11.23,21.48,-1027.83,1.02,-1.55,2.04,6.60,-15.60,-31.65,25.7
2026/04/13 15:22:24.55,IMU,-10.74,20.02,-1016.11,0.11,3.11,1.00,5.85,-14.85,-30.90,25.8
2026/04/13 15:22:24.65,IMU,20.02,36.13,-1016.11,2.00,1.18,3.13,5.40,-14.40,-31.35,25.4
2026/04/13 15:22:24.75,IMU,5.37,29.30,-1017.58,0.80,0.85,1.06,5.40,-15.60,-33.15,25.7
2026/04/13 15:22:24.85,IMU,13.67,19.53,-1011.72,1.32,0.50,2.04,6.90,-14.40,-31.35,25.8
2026/04/13 15:22:24.95,IMU,5.37,28.81,-1018.07,1.27,0.26,-2.05,6.30,-15.00,-31.50,25.5
2026/04/13 15:22:25.05,IMU,9.77,31.25,-1011.72,2.81,-0.85,0.33,6.60,-14.40,-31.65,25.7
2026/04/13 15:22:25.15,IMU,2.44,17.58,-1005.37,1.52,1.82,-0.33,6.60,-15.60,-30.30,25.4
2026/04/13 15:22:25.25,IMU,4.39,12.21,-1011.23,1.05,0.81,-1.61,7.05,-16.20,-30.90,25.4
2026/04/13 15:22:25.35,IMU,1.95,39.55,-1016.11,-0.46,3.47,-0.31,2.55,-17.10,-27.30,25.2
2026/04/13 15:22:25.45,IMU,9.77,20.51,-1014.16,2.64,0.18,1.08,6.90,-15.15,-33.15,25.7
2026/04/13 15:22:25.55,IMU,-7.81,26.86,-1012.70,1.01,0.07,0.69,5.85,-15.15,-33.15,25.7
2026/04/13 15:22:25.65,IMU,10.74,25.88,-1018.07,0.56,0.44,-1.02,6.15,-15.15,-33.15,25.8
2026/04/13 15:22:25.76,IMU,0.00,25.39,-1018.55,2.15,0.13,1.53,6.15,-17.10,-32.40,25.4
2026/04/13 15:22:25.86,IMU,4.88,24.90,-1016.60,0.50,1.95,0.46,7.35,-15.60,-32.70,25.5
2026/04/13 15:22:25.96,IMU,9.28,31.74,-1011.23,1.11,1.00,0.74,7.50,-14.70,-31.20,25.8
2026/04/13 15:22:26.06,IMU,-11.23,24.41,-1018.55,1.32,2.72,-0.53,6.30,-14.70,-32.25,25.8
2026/04/13 15:22:26.16,IMU,8.30,30.27,-1008.30,0.26,-0.40,0.26,6.75,-15.75,-32.55,25.8
2026/04/13 15:22:26.26,IMU,1.46,30.76,-1025.39,3.10,2.03,0.53,6.30,-14.25,-32.25,25.7
2026/04/13 15:22:26.36,IMU,11.23,29.79,-1020.02,0.47,-0.47,1.57,6.00,-16.20,-33.60,25.5
2026/04/13 15:22:26.46,IMU,-8.30,32.23,-1014.16,2.48,2.86,1.36,7.50,-15.75,-32.55,25.7
2026/04/13 15:22:26.56,IMU,7.32,34.18,-1013.67,1.56,4.11,-0.46,5.40,-15.60,-32.10,25.5
2026/04/13 15:22:26.66,IMU,-0.49,17.09,-1020.02,1.64,1.24,1.26,6.75,-16.95,-31.20,25.4
2026/04/13 15:22:26.76,IMU,9.77,19.04,-1015.63,1.43,0.87,1.02,6.60,-16.80,-32.70,25.7
2026/04/13 15:22:26.86,IMU,-2.44,33.20,-1017.58,2.05,1.31,-2.93,7.05,-14.70,-31.80,25.9
2026/04/13 15:22:26.96,IMU,-9.77,15.63,-1007.81,0.37,1.90,-0.95,6.30,-14.25,-32.25,25.9
2026/04/13 15:22:27.06,IMU,20.51,30.27,-1007.81,2.47,4.02,0.14,7.05,-15.45,-33.00,25.3
2026/04/13 15:22:27.16,IMU,-1.46,39.06,-1007.81,-1.15,0.06,0.37,7.80,-15.45,-30.00,25.7
2026/04/13 15:22:27.26,IMU,2.93,27.34,-1012.70,0.02,0.07,-0.54,6.00,-15.45,-30.75,25.8
2026/04/13 15:22:27.36,IMU,-3.42,13.67,-1020.02,2.68,1.66,-0.61,6.00,-16.95,-31.20,25.7
2026/04/13 15:22:27.46,IMU,10.74,28.81,-1015.14,-0.60,2.47,1.37,6.30,-15.75,-31.50,25.4
2026/04/13 15:22:27.56,IMU,-3.91,36.13,-1020.02,0.58,0.18,-0.63,6.60,-16.35,-31.35,25.8
2026/04/13 15:22:27.66,IMU,14.16,19.53,-1014.16,2.15,2.64,-0.08,6.90,-15.90,-32.40,25.7
2026/04/13 15:22:27.76,IMU,11.23,23.93,-1010.74,1.01,1.75,1.73,6.30,-13.80,-32.55,25.6
2026/04/13 15:22:27.86,IMU,5.37,25.88,-1017.58,1.31,0.63,0.85,6.90,-15.15,-30.90,25.6
2026/04/13 15:22:27.96,IMU,0.49,29.30,-1016.60,1.69,0.93,0.80,7.65,-15.90,-32.40,25.5
2026/04/13 15:22:28.06,IMU,2.44,36.62,-1025.88,2.09,0.58,2.00,5.85,-15.60,-31.35,25.7
2026/04/13 15:22:28.16,IMU,3.42,21.97,-1020.51,0.43,0.81,1.21,5.85,-15.60,-30.60,25.9
2026/04/13 15:22:28.26,IMU,6.84,28.81,-1015.63,0.85,-0.57,-0.68,6.60,-15.15,-30.90,25.7
2026/04/13 15:22:28.36,IMU,-1.95,30.76,-1000.49,2.20,0.99,1.08,6.00,-15.45,-32.25,25.5
2026/04/13 15:22:28.46,IMU,1.46,27.83,-1021.48,2.31,1.37,0.78,6.75,-13.80,-31.50,25.7
2026/04/13 15:22:28.56,IMU,-5.37,24.90,-1023.93,2.15,0.27,0.63,7.80,-15.75,-31.80,25.5
2026/04/13 15:22:28.66,IMU,13.67,27.83,-1013.67,2.94,1.72,0.78,6.60,-15.15,-32.10,25.6
2026/04/13 15:22:28.76,IMU,-1.46,15.63,-1023.93,1.27,1.71,1.10,6.60,-15.15,-32.10,25.6
2026/04/13 15:22:28.86,IMU,4.39,48.83,-1015.14,1.98,-0.90,1.82,6.00,-14.70,-32.55,25.7
2026/04/13 15:22:28.96,IMU,-0.49,30.27,-1014.16,0.18,2.35,3.01,6.30,-16.50,-32.55,25.8
2026/04/13 15:22:29.06,IMU,6.84,36.62,-1013.67,2.13,0.16,-1.95,7.35,-15.60,-30.90,25.4
2026/04/13 15:22:29.16,IMU,1.95,27.83,-1011.23,2.53,0.57,-1.05,6.60,-16.35,-30.90,25.9
2026/04/13 15:22:29.26,IMU,0.00,30.27,-1011.23,1.05,2.01,0.84,6.15,-15.15,-32.40,25.7
2026/04/13 15:22:29.36,IMU,-0.49,42.48,-1022.46,2.94,2.56,0.01,6.60,-15.15,-30.90,25.8
2026/04/13 15:22:29.46,IMU,-1.46,33.69,-1010.25,0.28,-0.11,1.26,7.35,-15.15,-31.35,25.7
2026/04/13 15:22:29.56,IMU,5.37,31.74,-1018.07,2.58,1.23,0.37,6.75,-14.70,-31.50,25.4
2026/04/13 15:22:29.66,IMU,8.30,31.74,-1013.67,0.68,0.28,-1.29,6.60,-15.15,-31.65,25.6
2026/04/13 15:22:29.76,IMU,-2.93,37.60,-1020.02,0.08,1.57,0.16,5.85,-16.35,-31.65,25.4
2026/04/13 15:22:29.86,IMU,-5.86,24.41,-1021.48,1.95,0.52,-1.56,6.90,-15.90,-33.15,25.8
2026/04/13 15:22:29.96,IMU,7.81,30.27,-1015.63,2.67,0.33,1.99,8.25,-15.75,-31.50,25.7
2026/04/13 15:22:30.06,IMU,7.81,24.90,-997.56,1.05,1.73,1.17,6.90,-15.15,-32.10,25.7
2026/04/13 15:22:30.16,IMU,0.98,31.74,-1013.67,1.53,2.21,-0.97,6.60,-15.60,-32.10,25.7
2026/04/13 15:22:30.26,IMU,6.84,26.37,-1030.76,0.44,1.69,0.68,6.15,-16.35,-31.65,25.9
2026/04/13 15:22:30.36,IMU,-1.95,17.09,-1004.88,2.35,3.37,0.98,7.05,-14.70,-31.50,25.7
2026/04/13 15:22:30.47,IMU,-6.35,34.18,-1012.21,2.65,1.22,0.36,3.30,-17.10,-25.95,25.4
2026/04/13 15:22:30.57,IMU,4.39,37.60,-1007.32,0.09,1.11,0.63,8.55,-14.25,-31.80,25.7
2026/04/13 15:22:30.67,IMU,8.79,40.04,-1014.16,2.73,1.84,-0.95,7.05,-14.25,-32.55,25.7
2026/04/13 15:22:30.77,IMU,6.84,23.44,-1003.42,0.91,2.42,0.31,6.90,-15.15,-32.40,25.6
2026/04/13 15:22:30.87,IMU,2.44,23.44,-1018.07,1.27,1.68,-0.10,7.05,-15.45,-31.50,25.6
2026/04/13 15:22:30.97,IMU,-0.49,17.09,-1019.53,2.63,3.32,-0.50,5.70,-15.45,-31.50,25.4
2026/04/13 15:22:31.07,IMU,-0.98,29.30,-1004.39,1.40,3.17,0.20,5.85,-14.85,-31.65,25.4
2026/04/13 15:22:31.17,IMU,13.18,26.86,-1021.48,-0.47,2.03,0.74,7.05,-16.50,-30.75,25.7
2026/04/13 15:22:31.27,IMU,3.91,33.69,-1013.18,1.33,-0.63,-0.60,6.00,-15.45,-31.50,25.7
2026/04/13 15:22:31.37,IMU,1.95,31.25,-1022.46,1.13,0.47,0.14,6.30,-13.05,-31.20,25.4
2026/04/13 15:22:31.47,IMU,10.74,39.06,-1013.67,3.71,2.40,-0.50,6.90,-16.35,-31.65,25.8
2026/04/13 15:22:31.57,IMU,-7.81,28.81,-1014.16,2.04,0.53,-0.85,7.05,-14.70,-31.20,25.5
2026/04/13 15:22:31.67,IMU,3.42,20.51,-1006.84,-0.02,2.43,2.06,7.50,-15.75,-31.80,25.6
2026/04/13 15:22:31.77,IMU,4.39,20.51,-1013.67,-0.21,3.05,-0.79,7.05,-13.80,-31.80,25.5
2026/04/13 15:22:31.87,IMU,12.70,24.41,-1023.93,0.43,1.05,-1.92,8.40,-15.15,-32.10,25.7
2026/04/13 15:22:31.97,IMU,6.84,26.37,-1022.46,-0.76,1.47,-0.15,6.60,-14.85,-31.65,25.9
2026/04/13 15:22:32.07,IMU,14.16,31.74,-1021.00,1.19,2.41,-0.97,5.85,-15.90,-30.60,25.7
2026/04/13 15:22:32.17,IMU,18.07,17.58,-1019.53,0.24,0.97,0.43,6.75,-15.45,-32.25,25.9
2026/04/13 15:22:32.27,IMU,-4.88,20.02,-1016.60,2.67,0.59,-0.04,6.30,-14.25,-32.25,25.7
2026/04/13 15:22:32.37,IMU,12.21,37.11,-1008.79,0.03,0.46,-1.83,6.75,-15.00,-31.80,25.3
2026/04/13 15:22:32.47,IMU,2.44,29.79,-1015.63,2.38,0.88,2.75,6.00,-14.70,-33.00,25.7
2026/04/13 15:22:32.57,IMU,-2.44,33.20,-1022.95,4.28,-1.70,0.57,5.70,-15.75,-33.00,25.8
2026/04/13 15:22:32.67,IMU,-2.44,24.90,-1021.48,1.94,1.21,0.18,6.60,-16.35,-32.40,25.6
2026/04/13 15:22:32.77,IMU,9.77,33.20,-1012.21,0.11,1.02,0.72,6.00,-15.00,-30.75,25.6
2026/04/13 15:22:32.88,IMU,-3.42,34.67,-1021.00,2.49,1.60,-2.15,5.10,-15.60,-31.65,25.4
2026/04/13 15:22:32.98,IMU,12.70,21.48,-1006.35,0.12,1.70,-2.04,7.50,-15.75,-33.30,25.7
2026/04/13 15:22:33.08,IMU,2.44,23.93,-1014.16,1.31,1.33,2.24,5.85,-17.10,-32.70,25.7
2026/04/13 15:22:33.18,IMU,2.44,20.02,-1019.53,1.76,1.21,1.19,6.90,-15.90,-30.60,25.5
2026/04/13 15:22:33.28,IMU,3.91,31.25,-1016.11,1.14,1.36,-0.53,6.90,-14.85,-33.15,25.4
2026/04/13 15:22:33.38,IMU,10.25,16.11,-1014.65,2.09,2.69,1.08,6.90,-14.40,-31.65,25.6
2026/04/13 15:22:33.48,IMU,8.30,35.64,-1020.02,0.97,2.03,0.18,6.30,-16.50,-32.55,25.8
2026/04/13 15:22:33.58,IMU,-0.49,30.27,-1022.46,1.85,0.24,0.40,5.10,-15.90,-32.10,25.7
2026/04/13 15:22:33.68,IMU,0.98,24.90,-1008.30,1.56,2.08,3.27,6.75,-16.50,-33.00,25.5
2026/04/13 15:22:33.78,IMU,-2.44,28.32,-1025.88,2.11,1.12,2.15,4.65,-15.15,-32.40,25.9
2026/04/13 15:22:33.88,IMU,4.88,26.86,-1014.16,2.17,-0.18,0.13,6.30,-14.25,-32.55,25.6
2026/04/13 15:22:33.98,IMU,-1.46,43.46,-1020.02,1.89,2.91,1.68,6.75,-15.00,-31.20,25.8
2026/04/13 15:22:34.08,IMU,11.23,36.62,-1008.30,0.69,2.26,2.49,5.10,-15.15,-31.35,25.5
2026/04/13 15:22:34.18,IMU,8.79,22.95,-1011.23,1.45,0.79,-0.37,7.35,-16.80,-31.35,25.7
2026/04/13 15:22:34.28,IMU,7.81,17.58,-1007.32,1.02,0.48,3.01,5.70,-15.00,-33.00,25.7
2026/04/13 15:22:34.38,IMU,-1.46,20.02,-1009.28,0.29,-0.62,-0.65,5.25,-16.20,-31.80,25.6
2026/04/13 15:22:34.48,IMU,0.98,44.43,-1009.28,-0.01,1.09,2.06,5.70,-15.45,-32.25,25.9
2026/04/13 15:22:34.58,IMU,-3.42,39.55,-1011.72,0.56,1.24,1.56,6.90,-16.80,-32.10,25.7
2026/04/13 15:22:34.68,IMU,3.42,21.48,-1013.67,0.28,0.66,2.67,7.05,-15.45,-31.80,25.9
2026/04/13 15:22:34.78,IMU,1.95,16.60,-1000.98,-1.06,2.59,0.33,6.30,-16.50,-33.30,25.8
2026/04/13 15:22:34.88,IMU,13.18,26.86,-1012.70,2.69,1.38,2.12,6.00,-15.45,-31.50,25.8
2026/04/13 15:22:34.98,IMU,15.63,26.37,-1015.14,1.46,0.22,-0.28,7.50,-16.50,-32.25,25.7
2026/04/13 15:22:35.08,IMU,-4.39,26.86,-1011.72,1.34,1.20,0.12,6.75,-15.45,-31.80,25.7
2026/04/13 15:22:35.18,IMU,-7.81,23.44,-1014.16,1.37,0.21,-0.72,7.65,-14.40,-30.60,25.7
2026/04/13 15:22:35.28,IMU,-13.67,16.11,-1018.07,0.80,1.06,-0.69,6.15,-14.40,-30.90,25.8
2026/04/13 15:22:35.38,IMU,1.95,21.97,-1025.39,1.56,-1.15,2.00,7.35,-15.90,-32.40,25.6
2026/04/13 15:22:35.48,IMU,4.88,32.23,-1013.18,1.40,2.36,1.18,5.70,-15.45,-31.20,25.5
2026/04/13 15:22:35.58,IMU,-4.88,21.00,-1021.48,2.29,-0.08,-0.45,5.40,-16.35,-32.70,25.9
2026/04/13 15:22:35.68,IMU,12.21,21.00,-1015.63,0.55,0.76,-1.26,6.30,-15.45,-33.00,25.8
2026/04/13 15:22:35.78,IMU,-0.98,30.27,-1009.77,1.22,1.52,0.57,7.80,-14.70,-31.50,25.7
2026/04/13 15:22:35.88,IMU,3.42,29.79,-1012.70,1.54,-0.33,1.12,8.40,-15.60,-31.65,25.7
2026/04/13 15:22:35.98,IMU,2.93,30.27,-1017.58,1.46,1.82,-0.27,9.15,-14.40,-31.65,25.4
2026/04/13 15:22:36.08,IMU,6.84,34.18,-1006.84,0.91,-0.71,-1.14,7.05,-13.80,-32.55,25.6
2026/04/13 15:22:36.18,IMU,17.09,29.79,-1014.16,1.56,2.37,-0.14,6.75,-15.00,-32.25,25.6
2026/04/13 15:22:36.28,IMU,4.88,23.93,-1009.77,1.64,-0.68,-0.03,6.90,-14.10,-32.10,25.8
2026/04/13 15:22:36.38,IMU,-0.98,19.04,-1022.95,1.83,0.40,0.97,7.05,-15.45,-32.25,25.5
2026/04/13 15:22:36.48,IMU,9.77,27.34,-1017.09,0.94,2.32,-0.75,6.30,-14.70,-31.20,25.6
2026/04/13 15:22:36.58,IMU,3.91,32.23,-1023.44,1.05,-0.47,1.00,2.70,-18.45,-27.60,25.9
2026/04/13 15:22:36.68,IMU,-2.44,31.74,-1016.11,0.90,1.34,-1.88,8.40,-15.90,-31.35,25.3
2026/04/13 15:22:36.78,IMU,11.72,26.37,-1017.58,0.81,4.22,0.73,6.60,-15.15,-32.10,25.7
2026/04/13 15:22:36.88,IMU,-6.84,29.30,-1021.00,-0.66,0.73,1.13,6.00,-16.20,-32.25,25.4
2026/04/13 15:22:36.98,IMU,-5.86,18.55,-1009.28,0.28,1.56,2.21,6.15,-14.85,-32.40,25.7
2026/04/13 15:22:37.08,IMU,-1.46,31.25,-1018.55,2.02,0.91,0.08,6.15,-15.90,-32.40,25.7
2026/04/13 15:22:37.18,IMU,-2.44,28.32,-1014.65,3.24,-0.03,0.47,6.15,-15.90,-32.40,25.6
2026/04/13 15:22:37.28,IMU,0.98,27.83,-1015.63,1.13,-0.09,-1.69,7.50,-14.70,-31.50,25.7
2026/04/13 15:22:37.38,IMU,-2.93,28.81,-1017.58,1.37,0.95,-1.08,6.90,-15.90,-30.30,25.7
2026/04/13 15:22:37.48,IMU,10.74,31.74,-1012.21,2.30,1.56,-2.28,6.75,-15.45,-33.60,25.7
2026/04/13 15:22:37.60,IMU,6.84,20.51,-1010.74,1.89,1.52,0.83,4.95,-20.40,-26.10,25.7
2026/04/13 15:22:37.70,IMU,0.49,21.48,-1021.00,0.02,1.92,-0.70,6.30,-16.20,-34.05,25.5
2026/04/13 15:22:37.80,IMU,10.74,31.74,-1013.67,0.41,2.08,0.12,7.35,-16.35,-30.90,25.7
2026/04/13 15:22:37.90,IMU,-4.39,26.37,-1023.93,-0.38,0.18,0.82,5.85,-17.10,-32.70,25.4
2026/04/13 15:22:38.00,IMU,-1.46,32.23,-1007.81,0.64,-0.12,0.65,6.75,-15.00,-31.20,25.8
2026/04/13 15:22:38.10,IMU,4.88,24.90,-1024.41,2.00,-0.25,-0.64,7.65,-14.40,-32.70,25.7
2026/04/13 15:22:38.20,IMU,-0.49,18.55,-1014.65,1.08,0.07,-0.16,5.70,-14.70,-30.75,25.4
2026/04/13 15:22:38.30,IMU,8.79,42.97,-1013.67,0.22,0.37,0.37,6.30,-15.75,-31.80,25.9
2026/04/13 15:22:38.40,IMU,10.74,37.11,-1018.55,-0.41,1.41,0.27,5.85,-13.65,-31.65,25.8
2026/04/13 15:22:38.50,IMU,-2.93,38.57,-1006.84,0.27,0.41,1.32,6.60,-15.60,-32.10,25.7
2026/04/13 15:22:38.60,IMU,1.46,38.09,-1013.67,1.85,1.44,2.01,5.10,-16.35,-30.30,25.8
2026/04/13 15:22:38.70,IMU,-4.88,19.04,-1000.49,-0.69,-1.66,-3.47,6.75,-15.45,-31.50,25.7
2026/04/13 15:22:38.80,IMU,7.81,25.88,-1018.07,2.18,1.56,0.64,7.65,-15.15,-31.35,25.7
2026/04/13 15:22:38.90,IMU,-2.93,26.37,-1011.23,-0.27,0.35,0.41,6.60,-16.80,-31.65,25.8
2026/04/13 15:22:39.00,IMU,-4.39,24.90,-1021.48,1.43,2.48,-0.51,6.15,-15.90,-32.10,25.5
2026/04/13 15:22:39.10,IMU,5.37,24.41,-1009.77,1.11,2.38,0.65,6.75,-15.75,-31.80,25.8
2026/04/13 15:22:39.20,IMU,-13.18,25.88,-1012.21,-0.31,0.20,0.61,5.70,-15.75,-31.50,25.6
2026/04/13 15:22:39.30,IMU,-0.49,25.88,-1010.25,1.84,1.59,-1.65,6.75,-14.70,-31.50,25.7
2026/04/13 15:22:39.40,IMU,-4.88,17.09,-1016.11,2.59,-2.20,0.93,6.90,-14.85,-32.70,25.9
2026/04/13 15:22:39.50,IMU,6.35,29.79,-1015.14,0.37,1.15,-0.66,6.75,-16.20,-31.80,25.9
2026/04/13 15:22:39.60,IMU,11.23,32.23,-1006.35,-0.82,2.77,0.01,6.30,-15.00,-33.30,25.7
2026/04/13 15:22:39.70,IMU,-5.86,35.16,-1006.84,-0.02,0.49,-1.13,7.50,-14.70,-32.55,25.8
2026/04/13 15:22:39.80,IMU,-5.37,30.76,-1009.28,1.35,-1.78,0.85,6.30,-15.75,-31.80,25.9
2026/04/13 15:22:39.90,IMU,-18.55,32.23,-1027.34,1.88,2.25,-0.98,6.30,-15.00,-33.00,25.6
2026/04/13 15:22:40.00,IMU,19.04,22.46,-1013.18,1.49,3.89,2.66,5.25,-15.00,-31.20,25.7
2026/04/13 15:22:40.10,IMU,4.39,33.20,-1014.16,1.22,0.20,-0.88,6.75,-16.20,-32.55,25.9
2026/04/13 15:22:40.20,IMU,9.28,30.76,-1023.44,1.94,0.17,0.59,6.30,-15.45,-32.25,25.5
2026/04/13 15:22:40.30,IMU,-0.49,34.18,-1005.86,1.24,0.77,2.02,5.85,-14.85,-32.40,26.0
2026/04/13 15:22:40.40,IMU,3.42,23.44,-1007.32,0.59,0.10,2.83,5.85,-14.10,-31.35,25.7
2026/04/13 15:22:40.50,IMU,0.98,21.48,-1002.44,1.33,3.09,0.25,5.25,-15.45,-31.50,25.4
2026/04/13 15:22:40.60,IMU,-4.39,30.27,-1016.11,1.34,3.25,-1.50,7.05,-15.00,-30.00,25.8
2026/04/13 15:22:40.70,IMU,7.81,36.62,-1007.32,1.14,0.78,1.01,6.60,-15.15,-31.35,25.7
2026/04/13 15:22:40.80,IMU,14.65,38.09,-1021.48,1.11,0.12,0.05,6.75,-15.45,-33.00,25.7
2026/04/13 15:22:40.90,IMU,-5.37,19.53,-1012.70,1.63,2.72,0.66,5.10,-15.15,-32.10,25.7
2026/04/13 15:22:41.01,IMU,5.37,21.00,-1012.70,3.12,-0.01,2.15,6.75,-16.95,-30.75,25.5
2026/04/13 15:22:41.11,IMU,6.84,25.39,-1012.21,2.60,0.47,0.40,6.30,-15.45,-31.50,25.7
2026/04/13 15:22:41.21,IMU,18.07,21.97,-1021.48,0.92,1.57,1.15,6.60,-15.15,-32.10,25.8
2026/04/13 15:22:41.31,IMU,1.95,30.27,-1005.37,0.09,4.23,0.79,6.00,-15.00,-31.80,25.4
2026/04/13 15:22:41.41,IMU,5.37,34.67,-1011.23,-0.14,-0.64,1.70,5.70,-15.00,-32.55,25.6
2026/04/13 15:22:41.51,IMU,5.37,25.88,-1007.81,1.99,1.47,-1.27,6.15,-15.90,-30.90,25.5
2026/04/13 15:22:41.61,IMU,3.42,16.60,-1021.00,1.15,0.88,-0.89,6.75,-15.75,-32.55,25.7
2026/04/13 15:22:41.71,IMU,17.58,40.53,-1007.81,0.45,2.86,0.39,7.95,-14.40,-30.30,25.5
2026/04/13 15:22:41.81,IMU,9.77,28.32,-1015.14,0.43,1.13,1.09,7.05,-16.20,-31.20,25.8
2026/04/13 15:22:41.91,IMU,8.30,31.74,-1017.09,0.31,1.26,-1.04,7.35,-15.15,-32.40,25.9
2026/04/13 15:22:42.01,IMU,-4.88,27.83,-1007.81,-0.12,1.46,1.19,5.40,-15.15,-30.90,25.7
2026/04/13 15:22:42.11,IMU,5.37,17.58,-1011.23,-0.68,-0.94,-0.94,6.90,-16.35,-32.70,25.7
2026/04/13 15:22:42.21,IMU,18.55,24.41,-1013.18,-0.11,-0.77,-0.44,7.65,-15.90,-32.70,25.8
2026/04/13 15:22:42.31,IMU,-14.65,34.18,-1013.18,0.02,2.34,1.34,5.85,-15.90,-32.10,25.9
2026/04/13 15:22:42.41,IMU,5.37,23.44,-1018.07,1.28,-0.21,2.02,7.50,-15.45,-31.50,25.8
2026/04/13 15:22:42.51,IMU,2.44,35.64,-1016.11,0.33,1.89,-1.25,7.35,-15.60,-33.90,25.4
2026/04/13 15:22:42.61,IMU,-5.37,36.62,-1021.97,1.66,0.30,1.04,6.90,-15.90,-31.65,25.8
2026/04/13 15:22:42.71,IMU,2.93,19.04,-1014.16,1.05,1.46,2.98,4.35,-18.30,-27.75,25.8
2026/04/13 15:22:42.81,IMU,-0.98,14.65,-1006.84,2.28,1.30,-0.45,6.15,-15.90,-30.90,25.9
2026/04/13 15:22:42.91,IMU,8.30,39.06,-1009.28,1.64,-0.89,2.21,6.60,-16.35,-31.35,25.9
2026/04/13 15:22:43.01,IMU,-8.79,28.32,-1005.37,0.40,2.65,1.46,5.70,-15.45,-30.75,25.6
2026/04/13 15:22:43.11,IMU,-5.37,18.07,-1027.34,0.23,1.13,-0.88,6.90,-16.35,-32.10,25.7
2026/04/13 15:22:43.21,IMU,4.39,22.95,-1013.18,1.48,2.00,-1.48,6.00,-16.20,-31.80,25.7
2026/04/13 15:22:43.31,IMU,-1.95,27.34,-1019.04,1.41,-0.05,0.89,6.00,-14.70,-30.75,25.7
2026/04/13 15:22:43.41,IMU,13.18,17.09,-1021.97,-1.18,3.19,-1.23,5.70,-15.45,-32.25,25.8
2026/04/13 15:22:43.51,IMU,7.32,28.32,-1013.18,2.17,-0.34,-0.63,6.00,-15.00,-30.75,25.7
2026/04/13 15:22:43.61,IMU,3.42,27.34,-1015.63,0.28,0.02,-0.27,6.60,-14.40,-30.90,25.9
2026/04/13 15:22:43.71,IMU,4.39,29.30,-1010.74,3.05,0.47,2.44,2.55,-19.35,-26.70,25.8
2026/04/13 15:22:43.81,IMU,4.39,31.25,-1014.65,1.77,0.98,1.32,6.15,-15.90,-30.30,25.8
2026/04/13 15:22:43.91,IMU,3.42,24.41,-1010.74,1.94,1.79,1.97,6.15,-14.85,-30.90,25.8
2026/04/13 15:22:44.01,IMU,7.81,22.95,-1009.28,-0.41,-1.57,-0.88,7.05,-15.75,-32.25,25.5
2026/04/13 15:22:44.11,IMU,-7.81,37.60,-1012.70,1.31,0.03,2.08,6.90,-16.35,-31.35,25.4
2026/04/13 15:22:44.21,IMU,2.44,29.79,-1014.16,2.19,0.60,0.08,6.15,-14.85,-32.10,25.5
2026/04/13 15:22:44.31,IMU,10.25,26.86,-1017.09,0.47,1.32,0.69,6.75,-15.75,-31.50,25.9
2026/04/13 15:22:44.41,IMU,5.86,22.95,-1022.46,-0.39,1.18,-0.68,6.00,-15.45,-31.80,26.1
2026/04/13 15:22:44.51,IMU,1.95,42.97,-1002.44,1.24,2.07,0.79,7.95,-14.85,-31.65,25.4
2026/04/13 15:22:44.61,IMU,1.46,27.83,-1013.67,2.43,1.50,0.43,7.50,-16.20,-31.50,25.8
2026/04/13 15:22:44.71,IMU,24.90,32.71,-1013.67,0.39,2.18,2.51,6.75,-15.75,-32.25,25.7
2026/04/13 15:22:44.81,IMU,-0.98,23.44,-1014.16,0.32,1.56,-0.19,5.10,-15.60,-32.10,25.6
2026/04/13 15:22:44.91,IMU,3.42,27.83,-1027.34,2.01,1.83,0.20,5.70,-15.00,-31.20,25.7
2026/04/13 15:22:45.01,IMU,7.32,39.06,-1015.63,0.42,1.63,0.89,6.90,-16.80,-30.30,25.9
2026/04/13 15:22:45.11,IMU,19.04,28.81,-1020.02,1.03,-0.13,-0.79,5.70,-15.75,-32.25,25.9
2026/04/13 15:22:45.21,IMU,8.30,28.81,-1024.41,1.13,1.38,0.97,6.15,-15.60,-32.40,25.9
2026/04/13 15:22:45.32,IMU,13.18,40.04,-1020.02,1.99,-0.79,-1.79,5.85,-15.15,-32.10,25.8
2026/04/13 15:22:45.42,IMU,4.88,34.67,-1023.44,0.44,2.77,0.46,6.90,-15.60,-31.35,25.8
2026/04/13 15:22:45.52,IMU,-5.37,38.57,-1021.97,0.31,2.25,1.28,5.40,-15.90,-31.35,25.7
2026/04/13 15:22:45.62,IMU,17.58,30.27,-1005.86,1.44,1.46,-0.63,6.15,-15.60,-32.10,25.7
2026/04/13 15:22:45.72,IMU,6.35,32.71,-1014.65,1.35,1.45,-1.17,5.70,-17.25,-32.25,25.5
2026/04/13 15:22:45.82,IMU,-4.88,26.37,-1011.23,1.64,-0.48,1.46,6.15,-15.90,-31.65,25.8
2026/04/13 15:22:45.92,IMU,12.21,29.30,-1015.14,0.38,0.58,0.03,7.35,-16.80,-32.40,25.7
2026/04/13 15:22:46.02,IMU,6.35,32.71,-1014.65,-0.04,2.50,0.93,7.95,-15.90,-32.10,25.8
2026/04/13 15:22:46.12,IMU,2.44,22.95,-1015.63,1.10,3.97,0.92,5.85,-14.85,-31.65,25.7
2026/04/13 15:22:46.22,IMU,4.88,15.63,-1013.67,2.37,0.10,-0.24,6.00,-16.20,-33.00,25.5
2026/04/13 15:22:46.32,IMU,4.88,37.11,-1021.97,0.95,3.60,0.61,6.90,-16.35,-32.40,25.9
2026/04/13 15:22:46.42,IMU,-5.37,19.53,-1004.88,1.28,1.08,1.54,6.60,-15.90,-32.10,25.9
2026/04/13 15:22:46.52,IMU,0.49,17.58,-1025.39,1.50,1.43,0.19,7.05,-14.70,-33.60,25.7
2026/04/13 15:22:46.62,IMU,-1.46,31.74,-1014.65,-0.37,4.59,2.21,6.00,-15.00,-32.25,25.9
2026/04/13 15:22:46.72,IMU,-0.98,29.30,-1023.93,0.40,-1.55,2.53,6.00,-16.20,-32.25,25.5
2026/04/13 15:22:46.82,IMU,5.86,32.71,-1021.00,0.31,0.33,-1.64,6.15,-15.60,-31.65,25.8
2026/04/13 15:22:46.92,IMU,-2.44,19.04,-1006.35,-0.76,1.44,-1.60,5.25,-15.45,-31.80,25.7
2026/04/13 15:22:47.02,IMU,-0.49,26.86,-1014.65,2.07,-0.31,-0.88,5.70,-15.00,-31.50,25.4
2026/04/13 15:22:47.12,IMU,1.95,32.71,-1008.79,0.93,1.65,-0.13,7.05,-16.20,-30.75,25.7
2026/04/13 15:22:47.22,IMU,3.42,33.69,-1022.95,0.43,0.88,0.66,6.75,-15.75,-31.50,25.8
2026/04/13 15:22:47.32,IMU,0.00,21.48,-1022.46,0.73,0.82,0.05,6.00,-16.20,-32.55,25.9
2026/04/13 15:22:47.42,IMU,3.91,31.74,-1005.37,-0.11,-0.15,0.31,6.90,-16.35,-30.60,25.8
2026/04/13 15:22:47.52,IMU,0.49,36.13,-1016.11,-0.65,1.95,-0.68,5.70,-15.75,-31.80,25.6
2026/04/13 15:22:47.62,IMU,-2.93,18.55,-1012.70,1.48,2.93,-0.18,6.30,-15.75,-31.50,25.8
2026/04/13 15:22:47.72,IMU,2.93,32.71,-1018.07,0.76,1.60,-1.33,6.90,-16.35,-30.90,25.7
2026/04/13 15:22:47.82,IMU,-0.49,32.71,-1015.14,0.69,1.76,-0.40,6.15,-16.35,-32.40,25.6
2026/04/13 15:22:47.92,IMU,-2.93,32.23,-1006.35,-0.51,0.81,-0.52,5.10,-14.10,-31.35,25.9
2026/04/13 15:22:48.02,IMU,12.70,39.06,-1017.58,0.23,0.48,0.07,7.05,-15.00,-31.50,25.9
2026/04/13 15:22:48.12,IMU,14.65,28.81,-1016.60,1.14,-0.12,0.03,6.75,-15.00,-31.50,25.7
2026/04/13 15:22:48.22,IMU,-0.49,36.13,-1006.84,0.67,-0.34,-2.29,6.60,-16.80,-31.35,25.8
2026/04/13 15:22:48.32,IMU,-5.86,21.48,-1022.46,0.65,0.88,-0.87,6.75,-16.50,-30.45,25.6
2026/04/13 15:22:48.42,IMU,-5.37,31.25,-1010.74,1.76,1.25,1.79,5.70,-15.75,-31.80,25.8
2026/04/13 15:22:48.52,IMU,7.81,24.90,-1015.14,0.72,1.28,-0.50,6.90,-14.85,-31.65,25.8
2026/04/13 15:22:48.62,IMU,1.95,31.74,-1009.77,2.44,-0.54,0.85,6.30,-16.20,-31.80,25.9
2026/04/13 15:22:48.72,IMU,5.37,34.18,-1000.49,-0.01,3.82,1.51,7.50,-15.45,-32.25,25.7
2026/04/13 15:22:48.82,IMU,8.30,29.79,-1007.81,2.18,3.38,2.16,3.75,-16.20,-27.90,25.7
2026/04/13 15:22:48.92,IMU,6.84,32.71,-1016.60,1.44,1.92,0.65,6.60,-15.60,-32.10,25.8
2026/04/13 15:22:49.02,IMU,10.25,13.67,-1018.55,0.79,2.10,1.54,6.90,-14.85,-32.40,25.9
2026/04/13 15:22:49.12,IMU,-7.32,25.39,-1012.70,1.51,-0.42,2.36,6.60,-16.35,-32.40,25.7
2026/04/13 15:22:49.22,IMU,5.86,23.44,-1013.67,1.05,2.76,1.40,6.30,-15.75,-31.80,25.6
2026/04/13 15:22:49.32,IMU,8.79,28.81,-1016.11,0.91,1.24,1.59,7.95,-16.80,-31.35,25.9
2026/04/13 15:22:49.42,IMU,8.79,25.39,-1017.58,1.87,-0.79,1.08,6.60,-14.40,-31.65,25.7
2026/04/13 15:22:49.52,IMU,0.00,18.55,-1019.53,1.29,1.02,2.11,6.30,-16.95,-32.25,25.7
2026/04/13 15:22:49.62,IMU,0.98,40.53,-1004.88,2.41,4.44,1.21,6.75,-15.75,-32.55,25.7
2026/04/13 15:22:49.72,IMU,1.95,27.83,-1024.90,2.46,0.99,-0.15,7.35,-12.90,-31.65,25.9
2026/04/13 15:22:49.83,IMU,-4.39,30.76,-1021.00,1.72,0.91,0.62,3.60,-17.85,-27.00,25.9
2026/04/13 15:22:49.93,IMU,5.37,39.06,-1023.93,1.18,-0.19,1.91,6.75,-15.75,-31.80,25.7
2026/04/13 15:22:50.03,IMU,2.44,21.00,-1010.25,0.64,-0.18,-0.60,5.85,-16.35,-30.90,25.8
2026/04/13 15:22:50.13,IMU,9.28,33.69,-1022.46,-0.34,2.64,1.66,6.75,-15.45,-31.50,25.7
2026/04/13 15:22:50.23,IMU,-2.93,23.44,-1021.00,0.27,0.03,0.05,5.85,-14.85,-32.40,25.9
2026/04/13 15:22:50.33,IMU,18.07,33.69,-1015.63,1.63,2.48,0.37,6.60,-15.60,-30.60,25.7
2026/04/13 15:22:50.43,IMU,9.28,27.34,-1006.35,-0.27,3.34,2.69,6.00,-16.50,-32.55,25.7
2026/04/13 15:22:50.53,IMU,3.91,30.76,-1006.84,0.61,2.79,0.31,5.70,-15.00,-32.55,25.7
2026/04/13 15:22:50.63,IMU,2.44,35.64,-1016.60,1.40,2.05,2.17,4.95,-16.20,-32.55,25.9
2026/04/13 15:22:50.73,IMU,0.98,36.13,-1011.23,0.92,1.74,1.36,7.65,-16.35,-33.15,25.9
2026/04/13 15:22:50.83,IMU,-2.93,22.46,-1017.09,1.22,1.04,-0.66,6.75,-15.00,-31.80,25.8
2026/04/13 15:22:50.93,IMU,4.39,36.62,-1011.23,0.06,2.39,0.56,6.30,-14.70,-31.20,25.7
2026/04/13 15:22:51.03,IMU,0.49,21.97,-1024.90,0.87,-0.90,-0.67,6.90,-15.60,-32.70,25.9
2026/04/13 15:22:51.13,IMU,-16.11,28.81,-1015.63,0.72,0.75,0.59,4.65,-14.40,-30.60,25.8
2026/04/13 15:22:51.23,IMU,-6.84,23.93,-1004.39,0.21,0.69,1.66,6.60,-15.60,-32.40,25.9
2026/04/13 15:22:51.33,IMU,8.30,38.09,-1014.16,1.14,1.94,-0.65,6.15,-16.35,-32.10,25.7
2026/04/13 15:22:51.43,IMU,-8.79,39.06,-1021.00,1.86,0.15,0.14,6.90,-15.90,-32.10,25.7
2026/04/13 15:22:51.53,IMU,4.39,29.30,-1022.95,0.10,0.84,-1.87,7.35,-16.35,-31.35,25.9
2026/04/13 15:22:51.63,IMU,-2.44,25.88,-1015.63,2.06,0.55,-0.60,6.15,-15.60,-31.65,25.9
2026/04/13 15:22:51.73,IMU,10.25,22.46,-1010.25,1.71,3.20,0.77,7.05,-15.45,-31.50,25.8
2026/04/13 15:22:51.83,IMU,-0.49,16.60,-1011.72,2.41,1.07,1.24,6.15,-15.60,-32.10,25.7
2026/04/13 15:22:51.93,IMU,-4.39,24.41,-1005.86,0.74,1.47,-1.85,6.15,-17.55,-32.10,25.9
2026/04/13 15:22:52.03,IMU,11.72,29.30,-1016.60,1.26,0.62,0.51,6.00,-17.25,-31.20,25.7
2026/04/13 15:22:52.13,IMU,2.93,19.53,-1019.53,0.47,1.34,-0.05,5.70,-15.00,-31.80,25.8
2026/04/13 15:22:52.23,IMU,5.37,21.97,-1030.76,-0.19,1.72,-2.09,7.80,-14.25,-31.50,25.7
2026/04/13 15:22:52.33,IMU,-2.93,25.39,-1015.63,1.43,2.52,0.11,5.85,-15.60,-31.65,25.9
2026/04/13 15:22:52.43,IMU,4.39,34.67,-1012.70,1.47,0.79,1.05,6.00,-16.20,-31.20,25.7
2026/04/13 15:22:52.53,IMU,4.39,33.69,-1020.51,2.53,-0.45,-2.04,7.50,-15.00,-31.20,25.7
2026/04/13 15:22:52.63,IMU,10.74,29.30,-1011.23,1.74,1.95,0.81,7.35,-15.90,-32.70,25.8
2026/04/13 15:22:52.73,IMU,0.49,22.95,-1019.04,1.33,1.25,1.83,6.60,-14.40,-32.40,25.7
2026/04/13 15:22:52.83,IMU,4.88,22.95,-1007.81,2.92,1.20,2.05,7.05,-14.25,-32.55,25.9
2026/04/13 15:22:52.93,IMU,9.77,17.58,-1010.74,1.91,-0.10,-1.21,6.60,-17.10,-32.10,25.8
2026/04/13 15:22:53.03,IMU,6.84,30.76,-1018.07,0.95,4.11,0.55,7.05,-15.45,-31.80,25.8
2026/04/13 15:22:53.13,IMU,8.30,31.25,-1014.65,1.16,-0.46,0.66,6.75,-16.50,-30.45,25.7
2026/04/13 15:22:53.23,IMU,-6.84,26.37,-1018.55,2.41,4.17,1.89,6.90,-16.35,-31.65,25.7
2026/04/13 15:22:53.33,IMU,8.30,25.39,-1012.70,2.20,0.24,2.20,6.90,-15.15,-30.60,25.7
2026/04/13 15:22:53.43,IMU,4.39,27.83,-1025.39,1.27,0.95,-1.91,7.65,-16.80,-30.60,26.1
2026/04/13 15:22:53.53,IMU,-16.11,31.74,-1029.30,1.77,2.11,1.92,6.75,-15.75,-30.75,25.5
2026/04/13 15:22:53.63,IMU,0.00,23.44,-1024.41,2.96,3.32,0.92,6.00,-15.75,-31.20,25.5
2026/04/13 15:22:53.73,IMU,-2.93,42.48,-1018.55,2.05,-0.75,1.11,7.50,-15.00,-31.80,26.0
2026/04/13 15:22:53.83,IMU,4.39,34.18,-1018.55,2.36,1.94,2.79,6.60,-17.10,-31.35,26.1
2026/04/13 15:22:53.93,IMU,0.49,39.55,-1014.16,1.26,-0.85,0.68,5.25,-14.70,-33.30,25.4
2026/04/13 15:22:54.03,IMU,8.30,35.16,-1015.14,1.83,0.34,4.02,6.15,-14.85,-30.90,25.8
2026/04/13 15:22:54.13,IMU,7.81,31.74,-1014.16,2.94,1.76,-1.18,6.75,-15.75,-30.75,25.9
2026/04/13 15:22:54.23,IMU,0.98,31.74,-1016.11,1.15,1.48,-1.29,6.90,-15.15,-30.90,25.8
2026/04/13 15:22:54.33,IMU,2.44,23.44,-1021.48,0.28,1.41,2.44,5.85,-15.90,-32.10,25.7
2026/04/13 15:22:54.43,IMU,1.95,42.97,-1024.41,-0.37,4.51,-0.15,7.05,-16.20,-31.50,25.9
2026/04/13 15:22:54.53,IMU,6.35,25.88,-1023.44,-0.08,3.44,-1.15,7.65,-14.40,-32.70,25.8
2026/04/13 15:22:54.63,IMU,17.09,29.79,-1011.72,3.58,1.75,0.55,7.05,-16.20,-31.80,25.9
2026/04/13 15:22:54.73,IMU,3.91,34.67,-1016.60,1.67,0.79,1.89,6.90,-16.35,-31.65,25.7
2026/04/13 15:22:54.84,IMU,-1.46,10.74,-1020.51,2.46,0.41,0.05,8.55,-15.75,-33.00,25.9
2026/04/13 15:22:54.94,IMU,-8.30,21.97,-1018.55,0.48,0.76,-0.94,4.65,-18.60,-27.00,25.9
2026/04/13 15:22:55.04,IMU,5.37,27.83,-1021.00,0.72,-0.37,1.58,7.35,-15.90,-31.35,25.9
2026/04/13 15:22:55.14,IMU,2.44,23.44,-1023.44,0.92,2.51,-0.34,6.30,-16.50,-32.25,25.7
2026/04/13 15:22:55.24,IMU,15.63,31.74,-1022.95,1.00,-1.00,1.95,7.05,-15.00,-31.50,25.9
2026/04/13 15:22:55.34,IMU,6.84,33.20,-1019.53,1.99,0.86,-0.13,7.65,-15.90,-31.35,25.8
2026/04/13 15:22:55.44,IMU,5.37,36.13,-1009.77,1.73,0.18,0.12,7.35,-16.35,-31.65,25.9
2026/04/13 15:22:55.54,IMU,-6.84,36.13,-1019.53,0.04,0.98,-1.16,6.75,-15.45,-30.75,25.7
2026/04/13 15:22:55.64,IMU,-4.88,23.44,-1016.11,1.76,-0.81,-0.08,6.90,-15.90,-30.30,25.7
2026/04/13 15:22:55.74,IMU,5.37,34.18,-1020.51,0.16,2.53,0.11,5.85,-15.15,-32.70,25.7
2026/04/13 15:22:55.84,IMU,2.44,21.97,-1017.58,0.07,1.15,2.41,6.60,-15.90,-32.40,26.0
2026/04/13 15:22:55.94,IMU,1.95,29.30,-1017.58,0.90,3.86,1.65,6.30,-16.50,-31.50,25.9
2026/04/13 15:22:56.04,IMU,3.91,23.93,-1016.60,1.46,1.46,-0.11,7.50,-13.80,-32.25,25.9
2026/04/13 15:22:56.14,IMU,8.30,30.27,-1009.77,0.60,3.28,0.72,6.30,-15.45,-31.20,25.9
2026/04/13 15:22:56.24,IMU,7.32,31.74,-1007.81,1.08,3.18,-0.11,6.60,-14.85,-32.10,25.9
2026/04/13 15:22:56.34,IMU,0.00,47.85,-1012.70,0.98,-0.69,-0.78,7.50,-14.70,-32.25,25.9
2026/04/13 15:22:56.44,IMU,-1.46,21.97,-1022.95,-0.09,1.29,1.94,6.00,-16.95,-33.30,25.9
2026/04/13 15:22:56.54,IMU,20.02,32.23,-1012.21,1.85,1.94,-0.22,7.65,-15.15,-31.35,25.8
2026/04/13 15:22:56.64,IMU,1.95,19.53,-1015.63,0.33,1.70,2.16,7.35,-15.60,-31.65,25.8
2026/04/13 15:22:56.74,IMU,0.00,34.18,-1013.18,1.56,2.85,-0.01,6.15,-14.85,-31.65,25.8
2026/04/13 15:22:56.84,IMU,9.28,41.50,-1006.84,1.79,1.36,2.31,6.90,-16.35,-31.35,25.8
2026/04/13 15:22:56.94,IMU,-6.35,31.25,-1019.04,2.26,0.19,0.72,6.30,-16.50,-30.75,25.4
2026/04/13 15:22:57.04,IMU,11.72,33.20,-1014.16,2.07,2.21,-0.06,6.60,-15.60,-31.65,25.7
2026/04/13 15:22:57.14,IMU,11.72,27.83,-1013.67,0.95,1.37,2.13,6.60,-16.35,-32.10,25.9
2026/04/13 15:22:57.24,IMU,1.95,34.67,-1007.32,-0.04,1.26,0.11,5.85,-16.35,-31.65,25.8
2026/04/13 15:22:57.34,IMU,-3.91,26.37,-1018.07,1.76,0.11,0.00,6.60,-15.15,-32.10,25.9
2026/04/13 15:22:57.44,IMU,0.49,18.07,-1010.74,2.14,2.91,-1.62,6.60,-15.60,-30.90,25.9
2026/04/13 15:22:57.54,IMU,13.18,24.41,-1013.18,0.60,0.33,-0.47,7.65,-14.85,-32.10,25.5
2026/04/13 15:22:57.64,IMU,-0.49,29.30,-1017.58,0.35,0.87,-1.46,6.60,-15.90,-32.10,25.8
2026/04/13 15:22:57.74,IMU,-6.35,27.83,-1010.74,0.28,-0.05,0.73,6.15,-16.35,-33.15,25.8
2026/04/13 15:22:57.84,IMU,3.42,24.90,-1013.18,-0.03,-0.27,-1.73,5.85,-14.10,-32.40,25.8
2026/04/13 15:22:57.94,IMU,12.21,28.81,-1012.21,0.59,0.67,-0.26,5.40,-16.80,-32.70,25.7
2026/04/13 15:22:58.04,IMU,-5.86,19.04,-1017.58,1.89,1.00,0.42,6.00,-16.20,-31.20,25.9
2026/04/13 15:22:58.14,IMU,6.35,21.48,-1016.60,-0.82,1.14,0.22,7.05,-16.50,-32.25,25.7
2026/04/13 15:22:58.24,IMU,-0.49,22.46,-1016.60,1.81,3.21,0.11,6.00,-15.75,-33.30,25.9
2026/04/13 15:22:58.34,IMU,16.60,32.23,-1020.02,0.72,0.39,0.77,7.05,-14.70,-33.00,25.7
2026/04/13 15:22:58.44,IMU,5.86,38.09,-1014.16,1.02,1.55,0.77,5.40,-15.15,-32.40,25.9
2026/04/13 15:22:58.54,IMU,5.37,33.20,-1024.90,1.73,-0.70,1.56,6.60,-16.35,-31.35,25.9
2026/04/13 15:22:58.64,IMU,-4.39,25.39,-1019.53,3.19,0.81,-0.28,5.85,-14.40,-30.90,25.9
2026/04/13 15:22:58.74,IMU,-6.84,30.76,-1012.21,0.80,1.97,0.55,6.75,-15.75,-31.50,25.9
2026/04/13 15:22:58.84,IMU,-10.74,12.70,-1023.44,0.94,0.32,-0.31,6.15,-16.35,-30.90,25.8
2026/04/13 15:22:58.94,IMU,-3.42,22.95,-1015.14,0.93,0.80,-2.79,7.35,-16.35,-32.10,25.9
2026/04/13 15:22:59.05,IMU,-0.49,38.57,-999.51,2.37,2.06,1.77,6.30,-15.75,-31.50,25.7
2026/04/13 15:22:59.15,IMU,-4.88,32.71,-1007.32,1.24,-1.60,-0.19,7.35,-15.60,-30.90,25.6
2026/04/13 15:22:59.25,IMU,-7.32,31.25,-1007.81,0.95,-0.52,0.46,7.05,-16.50,-31.50,25.9
2026/04/13 15:22:59.35,IMU,10.25,25.39,-1020.51,0.74,1.08,2.11,5.70,-15.75,-30.45,26.0
2026/04/13 15:22:59.45,IMU,5.37,31.74,-1013.67,0.95,1.00,1.92,5.70,-17.25,-32.55,26.0
2026/04/13 15:22:59.55,IMU,2.93,35.16,-1022.46,-0.07,3.27,-0.55,7.05,-15.75,-30.75,25.7
2026/04/13 15:22:59.65,IMU,4.39,23.93,-1020.51,-0.08,1.19,1.08,6.15,-15.75,-33.30,26.0
2026/04/13 15:22:59.75,IMU,12.70,18.55,-1027.83,2.25,0.90,2.44,4.95,-15.75,-31.20,25.9
2026/04/13 15:22:59.85,IMU,6.35,27.83,-1024.41,2.04,3.45,4.24,6.15,-15.90,-30.90,25.7
2026/04/13 15:22:59.95,IMU,-1.46,24.90,-1013.18,2.19,1.50,-1.31,7.05,-15.45,-32.25,25.7
2026/04/13 15:23:00.05,IMU,-1.95,28.32,-1022.95,1.05,3.32,0.65,5.40,-15.60,-33.45,25.9
2026/04/13 15:23:00.15,IMU,-4.39,22.95,-1018.07,1.89,1.99,1.98,7.35,-16.35,-32.40,25.9
2026/04/13 15:23:00.25,IMU,-0.49,36.62,-1017.58,2.08,0.72,-0.69,7.65,-15.60,-32.70,25.9
2026/04/13 15:23:00.35,IMU,0.49,27.34,-1023.93,0.50,2.08,1.11,6.60,-15.15,-30.90,25.7
2026/04/13 15:23:00.45,IMU,6.35,35.16,-1023.44,0.49,2.79,0.50,7.80,-16.20,-31.80,25.9
2026/04/13 15:23:00.55,IMU,4.39,28.32,-1006.35,-0.14,1.04,0.52,8.40,-16.80,-32.10,25.9
2026/04/13 15:23:00.65,IMU,-3.42,21.48,-1014.16,0.57,-0.08,1.78,6.60,-16.80,-30.60,25.9
2026/04/13 15:23:00.75,IMU,3.42,31.74,-1017.09,0.60,0.31,-1.18,6.75,-16.20,-31.50,25.7
2026/04/13 15:23:00.85,IMU,-1.95,31.25,-1013.18,1.48,1.39,1.50,6.75,-15.00,-31.80,25.8
2026/04/13 15:23:00.95,IMU,2.93,21.97,-1013.67,-0.02,-1.91,-0.09,7.35,-15.90,-31.65,25.8
2026/04/13 15:23:01.05,IMU,-3.42,35.64,-1025.88,0.96,-0.36,0.18,4.35,-14.85,-29.85,25.9
2026/04/13 15:23:01.15,IMU,-0.49,29.79,-1006.35,2.41,1.33,0.58,6.30,-14.70,-31.20,25.8
2026/04/13 15:23:01.25,IMU,-0.49,40.04,-1024.41,-0.03,2.77,0.17,7.50,-14.70,-31.50,25.7
2026/04/13 15:23:01.35,IMU,-4.88,44.43,-1010.74,2.27,-0.47,-0.15,6.75,-14.70,-33.30,25.8
2026/04/13 15:23:01.45,IMU,4.39,19.53,-1014.16,1.98,2.73,-0.47,7.05,-15.75,-31.80,25.9
2026/04/13 15:23:01.55,IMU,17.58,35.16,-1021.00,1.56,-0.60,-0.72,6.15,-15.90,-31.35,25.8
2026/04/13 15:23:01.65,IMU,2.93,28.81,-1019.04,-1.18,-0.56,-2.13,6.00,-13.80,-30.75,25.9
2026/04/13 15:23:01.75,IMU,-9.28,32.71,-1015.14,1.67,0.41,1.63,7.65,-15.90,-30.90,25.8
2026/04/13 15:23:01.85,IMU,-9.77,27.83,-1013.18,0.18,1.66,1.84,6.75,-15.75,-31.20,25.9
2026/04/13 15:23:01.95,IMU,0.49,35.16,-1010.25,2.20,1.08,1.47,5.25,-16.20,-31.20,25.8
2026/04/13 15:23:02.05,IMU,22.46,38.09,-1020.02,0.40,-0.18,1.60,1.35,-17.85,-25.20,25.9
2026/04/13 15:23:02.15,IMU,4.39,27.34,-1010.74,0.25,2.07,1.29,5.10,-15.90,-31.35,25.9
2026/04/13 15:23:02.25,IMU,2.93,37.11,-1016.60,2.55,-0.07,1.43,4.95,-15.00,-30.75,25.9
2026/04/13 15:23:02.35,IMU,10.25,37.60,-1024.41,2.73,1.81,0.20,6.90,-14.85,-32.10,25.7
2026/04/13 15:23:02.45,IMU,-2.93,32.23,-1023.44,1.20,0.82,-1.46,5.25,-15.75,-30.00,25.8
2026/04/13 15:23:02.55,IMU,8.30,25.88,-1016.60,0.57,2.20,0.45,6.30,-15.75,-30.45,25.6
2026/04/13 15:23:02.65,IMU,1.95,23.93,-1011.23,1.57,2.56,-0.32,6.30,-15.00,-31.80,25.9
2026/04/13 15:23:02.75,IMU,2.93,31.74,-1028.32,2.26,0.34,0.53,5.85,-15.60,-31.65,25.9
2026/04/13 15:23:02.85,IMU,4.88,35.64,-1019.53,2.02,1.02,-0.08,6.75,-14.70,-31.20,25.7
2026/04/13 15:23:02.95,IMU,5.37,29.30,-1012.21,1.53,0.79,0.23,5.70,-13.50,-31.80,25.8
2026/04/13 15:23:03.05,IMU,4.39,30.27,-1013.67,1.15,5.07,0.72,5.40,-15.90,-32.10,25.9
2026/04/13 15:23:03.15,IMU,-11.23,32.23,-1011.23,2.57,0.04,2.69,6.75,-17.70,-30.00,25.8
2026/04/13 15:23:03.26,IMU,6.84,25.39,-1022.46,0.37,1.45,-0.30,6.60,-15.15,-31.65,25.8
2026/04/13 15:23:03.36,IMU,-1.46,32.71,-1012.21,0.85,1.00,-0.08,6.00,-14.70,-31.20,25.9
2026/04/13 15:23:03.46,IMU,9.28,27.83,-1020.51,1.18,-0.07,-0.37,5.40,-15.60,-32.10,25.7
2026/04/13 15:23:03.56,IMU,4.39,27.34,-1000.98,1.48,1.00,0.89,7.35,-14.85,-32.70,25.9
2026/04/13 15:23:03.66,IMU,2.93,27.83,-1022.46,0.53,2.61,0.50,6.75,-16.20,-30.75,25.7
2026/04/13 15:23:03.76,IMU,-3.91,33.20,-1017.58,1.19,0.09,-1.21,5.40,-15.90,-31.35,25.9
2026/04/13 15:23:03.86,IMU,-9.28,41.99,-1018.07,2.41,0.43,-1.19,5.70,-14.25,-31.80,25.7
2026/04/13 15:23:03.96,IMU,12.21,22.46,-1018.55,0.93,-0.77,0.29,5.40,-16.80,-32.10,25.7
2026/04/13 15:23:04.06,IMU,5.37,33.20,-1007.81,2.10,0.94,2.66,7.35,-15.90,-30.90,25.6
2026/04/13 15:23:04.16,IMU,-10.74,33.69,-1018.07,0.02,-0.37,2.31,5.70,-15.75,-31.80,25.4
2026/04/13 15:23:04.26,IMU,17.58,22.46,-1007.81,1.79,0.51,3.10,5.85,-16.80,-32.10,25.8
2026/04/13 15:23:04.36,IMU,-1.46,26.86,-1016.11,-0.90,1.42,-1.44,6.90,-15.15,-32.40,26.1
2026/04/13 15:23:04.46,IMU,5.37,35.16,-1018.55,2.23,3.02,2.10,7.05,-16.20,-33.00,25.9
2026/04/13 15:23:04.56,IMU,-0.98,35.16,-1018.07,2.06,3.60,0.41,7.05,-15.45,-31.50,25.5
2026/04/13 15:23:04.66,IMU,-3.42,37.60,-1018.07,1.66,0.80,-0.43,6.15,-14.85,-31.35,25.7
2026/04/13 15:23:04.76,IMU,-5.37,28.32,-1021.48,-0.02,1.63,-0.03,7.65,-14.40,-31.65,25.8
2026/04/13 15:23:04.86,IMU,8.79,29.79,-1012.70,1.59,-2.69,0.69,6.00,-16.50,-30.75,25.9
2026/04/13 15:23:04.96,IMU,-1.46,22.95,-1004.39,1.12,2.14,-1.25,6.15,-15.15,-31.65,25.9
2026/04/13 15:23:05.06,IMU,-5.37,30.27,-1033.69,0.57,1.63,3.43,6.60,-15.15,-32.10,25.7
2026/04/13 15:23:05.16,IMU,-4.88,21.48,-1018.55,1.86,0.77,3.26,5.70,-13.05,-31.50,26.1
2026/04/13 15:23:05.26,IMU,-3.91,36.62,-1015.63,1.02,0.73,1.63,5.85,-14.10,-30.90,25.9
2026/04/13 15:23:05.36,IMU,-3.91,31.25,-1020.02,2.89,0.71,0.07,6.30,-16.95,-31.80,25.9
2026/04/13 15:23:05.46,IMU,-1.46,32.23,-1016.11,1.92,0.47,2.13,6.30,-15.45,-31.80,25.8
2026/04/13 15:23:05.56,IMU,9.28,23.93,-1009.77,2.56,2.07,-1.23,5.70,-16.50,-31.80,25.6
2026/04/13 15:23:05.66,IMU,-3.91,36.62,-1022.95,2.68,-0.90,1.73,7.05,-15.75,-31.50,25.7
2026/04/13 15:23:05.76,IMU,0.98,35.16,-1011.72,0.68,-0.16,0.74,6.90,-14.40,-31.65,25.7
2026/04/13 15:23:05.86,IMU,-4.88,18.07,-1027.83,2.04,1.15,0.77,5.70,-15.00,-31.50,25.9
2026/04/13 15:23:05.96,IMU,7.81,25.39,-1005.37,-0.45,0.86,1.89,7.05,-15.00,-30.75,25.5
2026/04/13 15:23:06.06,IMU,6.35,15.63,-1027.34,2.63,2.36,-1.25,5.70,-15.45,-31.20,25.8
2026/04/13 15:23:06.16,IMU,11.72,22.95,-1014.65,1.38,0.26,0.15,6.60,-15.90,-32.10,25.8
2026/04/13 15:23:06.26,IMU,4.88,23.44,-1019.04,0.39,2.54,1.03,6.00,-16.50,-32.70,25.7
2026/04/13 15:23:06.36,IMU,-2.93,29.79,-1000.98,2.18,0.99,-0.13,5.10,-15.90,-32.10,25.9
2026/04/13 15:23:06.46,IMU,-7.32,22.95,-1014.16,2.91,0.90,0.23,7.65,-15.15,-31.65,25.7
2026/04/13 15:23:06.56,IMU,-4.88,25.88,-1027.34,0.46,3.90,0.66,7.35,-16.35,-32.70,25.7
2026/04/13 15:23:06.66,IMU,12.70,22.95,-1025.39,2.15,0.45,1.68,5.85,-17.10,-32.10,25.7
2026/04/13 15:23:06.76,IMU,4.39,29.30,-1022.46,1.26,2.31,-0.41,6.15,-17.55,-31.35,25.6
2026/04/13 15:23:06.86,IMU,-6.84,14.16,-1017.09,1.06,-0.57,-0.38,6.15,-15.60,-31.35,26.0
2026/04/13 15:23:06.96,IMU,12.70,22.95,-1023.93,0.87,1.73,-0.12,6.60,-16.35,-31.35,25.7
2026/04/13 15:23:07.06,IMU,-6.35,16.11,-1020.02,-0.02,4.06,0.40,6.00,-15.00,-31.50,25.9
2026/04/13 15:23:07.16,IMU,5.37,28.81,-1020.51,1.37,1.44,0.11,3.45,-18.45,-28.65,25.7
2026/04/13 15:23:07.26,IMU,4.88,35.16,-1014.16,-1.37,0.99,0.38,5.25,-14.25,-30.75,25.9
2026/04/13 15:23:07.36,IMU,6.35,29.79,-1017.09,1.38,2.35,0.23,6.90,-17.10,-30.60,25.9
2026/04/13 15:23:07.46,IMU,-1.46,32.23,-1012.70,1.30,1.76,0.19,6.30,-15.75,-31.20,25.7
2026/04/13 15:23:07.56,IMU,-7.32,34.18,-1021.97,1.20,1.92,-0.31,7.05,-15.75,-30.45,25.8
2026/04/13 15:23:07.66,IMU,17.09,33.20,-1023.44,1.73,1.94,-0.85,6.75,-14.25,-31.50,25.7
2026/04/13 15:23:07.76,IMU,-1.95,33.20,-1011.23,1.32,0.00,2.22,5.70,-16.20,-32.25,25.7
2026/04/13 15:23:07.86,IMU,-4.88,33.20,-1014.16,2.03,1.66,1.38,6.00,-14.70,-32.25,25.9
2026/04/13 15:23:07.96,IMU,-4.39,27.83,-1014.16,1.73,-0.76,0.90,8.25,-14.70,-31.80,25.4
2026/04/13 15:23:08.06,IMU,2.93,29.79,-1014.65,1.38,2.40,0.85,7.50,-16.50,-32.55,25.7
2026/04/13 15:23:08.17,IMU,10.74,28.81,-1021.97,1.57,-0.60,-1.76,7.05,-19.20,-30.00,25.8
2026/04/13 15:23:08.27,IMU,0.00,25.88,-1024.41,-0.27,1.84,-2.31,6.00,-16.95,-32.25,25.7
2026/04/13 15:23:08.37,IMU,-0.49,29.79,-1020.51,1.50,2.76,-0.92,6.15,-15.90,-31.35,25.9
2026/04/13 15:23:08.47,IMU,15.63,32.71,-1012.21,-1.49,0.85,-1.73,7.50,-16.20,-31.80,25.9
2026/04/13 15:23:08.57,IMU,3.91,15.14,-1020.51,0.35,1.19,0.29,5.70,-15.75,-32.25,25.4
2026/04/13 15:23:08.67,IMU,-7.81,24.90,-1016.11,1.05,0.76,1.88,6.75,-16.20,-30.75,25.7
2026/04/13 15:23:08.77,IMU,7.32,37.11,-1019.04,-0.71,1.34,1.43,6.60,-16.35,-32.40,25.7
2026/04/13 15:23:08.87,IMU,-12.70,34.67,-1027.83,1.11,2.19,0.26,8.70,-14.10,-31.35,25.7
2026/04/13 15:23:08.97,IMU,7.81,35.16,-1018.07,1.89,0.59,0.83,5.85,-15.15,-32.10,25.7
2026/04/13 15:23:09.07,IMU,-7.81,23.93,-1024.41,1.37,0.86,0.97,6.30,-17.25,-32.25,25.8
2026/04/13 15:23:09.17,IMU,25.39,32.23,-1018.55,2.20,-0.61,1.76,7.05,-15.45,-32.55,25.8
2026/04/13 15:23:09.27,IMU,-6.84,19.53,-1014.16,1.95,0.16,1.44,6.00,-15.45,-31.50,25.7
2026/04/13 15:23:09.37,IMU,20.51,32.71,-1020.02,1.02,1.19,-2.63,6.60,-16.80,-32.10,25.7
2026/04/13 15:23:09.47,IMU,0.98,20.51,-1019.04,1.47,0.18,-1.41,7.80,-15.00,-30.75,25.9
2026/04/13 15:23:09.57,IMU,14.65,20.51,-1008.30,2.11,2.76,2.11,6.00,-15.75,-32.25,25.9
2026/04/13 15:23:09.67,IMU,-0.98,40.04,-1023.44,1.81,-0.98,0.58,6.15,-16.80,-30.90,25.9
2026/04/13 15:23:09.77,IMU,-5.37,30.76,-1028.81,2.37,1.71,-1.22,6.90,-15.90,-31.35,25.7
2026/04/13 15:23:09.87,IMU,-8.30,28.81,-1015.14,-1.16,0.08,-0.25,6.90,-15.60,-33.15,25.8
2026/04/13 15:23:09.97,IMU,6.35,25.39,-1011.72,2.26,2.98,-0.99,7.35,-15.60,-31.65,25.8
2026/04/13 15:23:10.07,IMU,16.11,28.81,-1017.58,1.14,1.27,1.17,6.90,-14.10,-31.35,25.4
2026/04/13 15:23:10.17,IMU,7.81,26.86,-1017.09,2.44,-1.77,-1.77,6.60,-16.80,-32.10,25.5
2026/04/13 15:23:10.27,IMU,3.91,35.16,-1025.39,0.59,2.13,-0.18,6.15,-15.60,-32.10,25.8
2026/04/13 15:23:10.37,IMU,-4.39,22.95,-1008.30,1.25,0.32,-0.40,7.50,-14.70,-30.75,25.8
2026/04/13 15:23:10.47,IMU,8.79,33.69,-1006.84,1.53,2.90,2.18,5.40,-15.90,-32.70,25.7
2026/04/13 15:23:10.57,IMU,-8.30,39.55,-1022.46,1.00,2.61,0.79,5.85,-15.15,-31.35,25.5
2026/04/13 15:23:10.67,IMU,0.98,34.67,-1021.00,1.47,-0.05,0.21,6.75,-15.00,-31.80,25.9
2026/04/13 15:23:10.77,IMU,8.79,18.55,-1020.51,1.64,0.88,-0.08,7.50,-15.00,-31.50,25.9
2026/04/13 15:23:10.87,IMU,-3.42,32.71,-1013.18,2.05,1.98,2.20,6.00,-15.45,-31.20,25.7
2026/04/13 15:23:10.97,IMU,3.91,19.53,-1014.16,2.86,-0.85,1.99,6.60,-15.60,-31.35,25.9
2026/04/13 15:23:11.07,IMU,3.91,29.30,-1021.48,-1.04,3.41,-0.14,6.60,-15.90,-31.65,25.9
2026/04/13 15:23:11.17,IMU,-10.74,27.34,-1008.30,1.01,1.27,1.24,7.05,-16.20,-30.75,25.8
2026/04/13 15:23:11.27,IMU,-4.39,23.44,-1007.32,2.41,1.19,1.71,6.60,-14.40,-31.65,25.7
2026/04/13 15:23:11.37,IMU,5.37,20.02,-1018.55,1.02,2.02,2.15,7.05,-15.45,-31.20,25.9
2026/04/13 15:23:11.47,IMU,8.30,33.69,-1009.28,0.49,1.47,-1.05,6.00,-15.45,-31.80,26.0
2026/04/13 15:23:11.57,IMU,0.00,26.37,-1017.58,-0.42,-0.33,1.87,5.85,-16.80,-32.10,25.7
2026/04/13 15:23:11.67,IMU,-2.44,29.79,-1012.21,2.05,1.47,-1.04,6.15,-15.60,-30.60,25.7
2026/04/13 15:23:11.77,IMU,0.98,19.04,-1024.90,2.77,-0.06,2.13,6.15,-16.35,-32.70,25.6
2026/04/13 15:23:11.87,IMU,7.81,36.62,-1021.97,1.88,0.20,2.23,7.05,-15.45,-31.80,25.8
2026/04/13 15:23:11.97,IMU,-16.60,5.37,-1016.60,1.60,2.33,1.39,6.30,-14.70,-31.20,25.7
2026/04/13 15:23:12.07,IMU,-1.46,22.46,-1014.16,1.01,1.93,0.85,6.75,-15.00,-32.55,25.9
2026/04/13 15:23:12.17,IMU,-6.35,29.79,-1009.28,0.89,1.55,1.76,6.90,-15.60,-31.35,25.7
2026/04/13 15:23:12.27,IMU,12.21,40.04,-1021.97,0.69,2.55,2.10,6.15,-15.90,-32.70,25.9
2026/04/13 15:23:12.37,IMU,-5.86,26.86,-1010.74,-1.26,2.25,-1.34,6.90,-14.40,-31.65,25.9
2026/04/13 15:23:12.47,IMU,0.00,37.11,-1024.41,0.66,1.08,1.44,6.30,-15.75,-30.45,26.0
2026/04/13 15:23:12.58,IMU,3.42,37.60,-1018.07,0.07,2.60,-0.02,7.65,-14.40,-32.70,25.8
2026/04/13 15:23:12.68,IMU,-5.37,23.93,-1018.07,2.21,0.17,0.09,6.30,-16.20,-30.75,25.9
2026/04/13 15:23:12.78,IMU,1.46,25.39,-999.02,1.24,-0.76,-1.65,6.30,-15.45,-31.80,25.8
2026/04/13 15:23:12.88,IMU,2.44,27.34,-1015.63,2.38,2.97,0.63,6.60,-15.15,-31.35,25.8
2026/04/13 15:23:12.98,IMU,-1.95,31.74,-1020.51,1.69,-1.40,0.04,6.90,-15.60,-31.65,25.9
2026/04/13 15:23:13.08,IMU,-3.42,35.64,-1019.04,2.95,1.52,2.48,6.30,-14.70,-31.80,25.7
2026/04/13 15:23:13.18,IMU,0.00,40.53,-1024.41,1.63,1.57,1.40,6.90,-15.15,-32.10,25.7
2026/04/13 15:23:13.28,IMU,8.30,24.41,-1015.14,1.98,1.11,0.93,6.60,-15.60,-30.90,25.8
2026/04/13 15:23:13.38,IMU,-4.39,29.30,-1017.09,0.37,-0.31,0.87,6.15,-14.85,-31.65,25.5
2026/04/13 15:23:13.48,IMU,5.86,31.25,-1028.32,0.79,1.29,1.34,7.05,-15.00,-32.25,25.7
2026/04/13 15:23:13.58,IMU,10.25,37.60,-1004.88,0.68,0.89,0.76,6.75,-15.00,-33.00,25.7
2026/04/13 15:23:13.68,IMU,-0.49,36.62,-1017.58,1.75,0.50,-0.27,5.40,-15.15,-32.70,25.7
2026/04/13 15:23:13.78,IMU,3.42,26.37,-1026.37,0.44,0.24,0.03,5.85,-14.85,-33.45,25.9
2026/04/13 15:23:13.88,IMU,1.46,42.48,-1014.65,0.84,1.56,0.46,6.00,-15.00,-33.00,25.9
2026/04/13 15:23:13.98,IMU,3.91,43.95,-1014.65,0.05,1.44,0.18,6.30,-16.20,-30.75,25.9
2026/04/13 15:23:14.08,IMU,0.00,30.27,-1017.58,0.35,0.97,0.62,6.00,-15.45,-31.50,25.7
2026/04/13 15:23:14.18,IMU,2.93,34.18,-1013.67,2.08,1.08,1.40,6.75,-15.45,-31.20,25.9
2026/04/13 15:23:14.28,IMU,11.23,24.41,-1020.02,0.72,-1.21,-0.79,2.55,-17.55,-27.00,25.8
2026/04/13 15:23:14.38,IMU,-3.91,19.04,-1009.28,0.63,1.47,-0.85,6.75,-16.50,-30.45,25.9
2026/04/13 15:23:14.48,IMU,2.93,27.34,-1021.97,2.33,1.03,2.38,7.50,-15.00,-32.55,25.9
2026/04/13 15:23:14.58,IMU,6.35,36.62,-1020.02,1.34,2.44,-1.92,6.90,-15.60,-30.90,26.0
2026/04/13 15:23:14.68,IMU,-4.88,36.13,-1014.16,1.97,-0.10,0.70,5.40,-14.85,-31.35,25.5
2026/04/13 15:23:14.78,IMU,2.44,38.09,-1013.67,0.09,0.41,-0.47,5.70,-15.45,-33.00,25.8
2026/04/13 15:23:14.88,IMU,0.98,27.83,-1014.65,1.66,2.47,0.51,6.15,-13.65,-30.30,25.8
2026/04/13 15:23:14.98,IMU,0.49,17.58,-1003.42,1.11,0.91,-0.80,7.50,-16.20,-31.50,25.9
2026/04/13 15:23:15.08,IMU,5.37,32.71,-1015.63,1.18,3.58,1.76,7.50,-15.45,-31.50,25.7
2026/04/13 15:23:15.18,IMU,-6.35,24.41,-1020.51,2.75,1.46,-0.26,7.65,-15.90,-31.65,25.7
2026/04/13 15:23:15.28,IMU,0.49,24.90,-1021.00,2.20,1.84,-2.31,6.60,-13.65,-31.35,25.7
2026/04/13 15:23:15.38,IMU,0.00,28.32,-1008.79,1.73,1.37,-0.18,6.75,-16.50,-32.25,26.1
2026/04/13 15:23:15.48,IMU,-2.44,37.60,-1028.81,1.20,1.65,1.22,5.85,-14.40,-31.35,25.9
2026/04/13 15:23:15.58,IMU,13.18,24.41,-1014.65,1.21,-0.29,-0.39,7.65,-17.10,-32.10,25.7
2026/04/13 15:23:15.68,IMU,12.70,22.46,-1021.97,1.29,2.00,-0.21,6.60,-15.60,-32.40,25.9
2026/04/13 15:23:15.78,IMU,-1.46,29.30,-1011.23,2.95,1.18,0.32,7.80,-16.50,-31.80,25.7
2026/04/13 15:23:15.88,IMU,-8.30,35.64,-1009.28,5.12,-0.55,0.46,6.15,-15.90,-31.35,25.9
2026/04/13 15:23:15.98,IMU,14.65,35.16,-1024.90,1.47,0.67,0.73,6.30,-15.75,-32.55,25.8
2026/04/13 15:23:16.08,IMU,6.84,25.39,-1016.11,0.27,2.29,1.22,7.65,-17.10,-30.60,25.5
2026/04/13 15:23:16.18,IMU,-9.28,21.00,-1011.72,1.98,1.74,1.59,6.60,-15.90,-32.10,25.8
2026/04/13 15:23:16.28,IMU,-9.28,23.44,-1029.30,1.40,0.01,0.26,6.90,-15.60,-30.90,25.9
2026/04/13 15:23:16.38,IMU,7.81,8.30,-1015.14,1.57,1.94,-0.47,4.95,-15.75,-30.75,25.7
2026/04/13 15:23:16.48,IMU,3.91,27.34,-1020.02,-0.74,1.29,-0.09,5.25,-15.45,-31.50,25.9
2026/04/13 15:23:16.58,IMU,5.86,24.41,-1007.81,1.26,0.56,-0.47,6.30,-15.00,-33.00,25.9
2026/04/13 15:23:16.68,IMU,8.79,21.48,-1016.11,0.10,1.44,1.59,7.95,-16.80,-31.65,25.9
2026/04/13 15:23:16.78,IMU,-5.86,38.09,-1017.58,1.45,1.56,2.40,6.00,-16.50,-32.25,25.9
2026/04/13 15:23:16.88,IMU,2.44,33.69,-1009.28,1.51,2.15,1.43,6.30,-15.45,-30.75,25.8
2026/04/13 15:23:16.99,IMU,0.98,31.74,-1006.35,-0.03,1.17,1.12,6.30,-15.45,-31.80,25.8
2026/04/13 15:23:17.09,IMU,11.23,27.83,-1021.48,-0.08,0.52,1.74,6.15,-15.15,-30.30,25.8
2026/04/13 15:23:17.19,IMU,5.86,44.92,-1009.28,1.47,-1.83,0.70,4.65,-15.90,-32.10,25.7
2026/04/13 15:23:17.29,IMU,12.21,21.48,-1007.81,1.49,-0.57,1.73,7.35,-17.10,-32.70,25.6
2026/04/13 15:23:17.39,IMU,8.30,37.11,-1016.60,2.08,1.68,-0.21,5.40,-15.60,-31.35,25.9
2026/04/13 15:23:17.49,IMU,-0.98,15.63,-1016.60,1.05,1.21,1.79,7.35,-15.90,-32.10,25.9
2026/04/13 15:23:17.59,IMU,-2.44,39.06,-1030.76,2.85,3.10,1.23,6.30,-15.00,-31.80,26.1
2026/04/13 15:23:17.69,IMU,-3.91,36.62,-1020.02,2.41,0.52,0.18,6.75,-15.45,-31.50,25.6
2026/04/13 15:23:17.79,IMU,-4.88,32.23,-1014.65,2.03,1.00,1.68,6.15,-15.60,-31.35,25.9
2026/04/13 15:23:17.89,IMU,0.00,18.55,-1011.72,0.94,1.00,-0.22,7.65,-14.85,-32.10,25.9
2026/04/13 15:23:17.99,IMU,8.79,23.44,-1012.70,2.42,2.66,0.46,5.10,-15.60,-32.10,25.7
2026/04/13 15:23:18.09,IMU,-0.98,19.53,-1026.86,1.89,-1.45,0.18,5.70,-15.75,-32.25,25.9
2026/04/13 15:23:18.19,IMU,4.39,20.02,-1023.93,0.73,1.05,0.66,7.80,-15.75,-30.75,25.9
2026/04/13 15:23:18.29,IMU,4.88,22.46,-1020.51,0.86,2.17,-0.46,6.90,-15.90,-30.60,25.9
2026/04/13 15:23:18.39,IMU,3.91,20.02,-1021.00,0.80,2.69,1.00,6.00,-15.45,-32.25,25.9
2026/04/13 15:23:18.49,IMU,10.25,21.97,-1014.16,2.34,0.76,1.93,6.00,-13.50,-31.20,26.1
2026/04/13 15:23:18.59,IMU,0.00,29.79,-1012.70,2.93,-0.18,-0.08,6.15,-16.80,-31.65,25.8
2026/04/13 15:23:18.69,IMU,5.37,27.83,-1021.48,0.43,-0.25,0.01,6.60,-16.35,-30.90,25.7
2026/04/13 15:23:18.79,IMU,7.32,27.83,-1016.60,1.75,0.59,-0.90,7.95,-15.60,-32.10,25.9
2026/04/13 15:23:18.89,IMU,11.72,35.64,-1020.51,2.07,-1.16,1.12,6.00,-16.95,-33.60,25.7
2026/04/13 15:23:18.99,IMU,0.98,23.93,-1011.23,0.38,1.86,3.31,6.15,-15.90,-31.65,25.9
2026/04/13 15:23:19.09,IMU,2.93,26.37,-1023.44,0.25,1.21,1.16,6.60,-14.40,-30.90,25.9
2026/04/13 15:23:19.19,IMU,-1.95,28.81,-1021.97,0.11,0.45,-0.77,6.75,-15.45,-31.20,25.4
2026/04/13 15:23:19.29,IMU,-7.81,31.25,-1016.60,1.53,-0.86,-0.13,6.75,-15.75,-31.50,25.9
2026/04/13 15:23:19.39,IMU,-6.35,23.44,-1015.14,2.54,1.51,-0.76,3.45,-17.70,-27.60,25.9
2026/04/13 15:23:19.49,IMU,14.65,21.97,-1021.48,0.73,-0.40,0.11,6.30,-16.50,-32.25,25.9
2026/04/13 15:23:19.59,IMU,-4.39,14.65,-1021.48,1.34,0.40,2.20,6.30,-16.50,-33.00,25.7
2026/04/13 15:23:19.69,IMU,9.28,44.43,-1005.86,2.79,1.27,0.06,4.65,-16.35,-31.35,25.9
2026/04/13 15:23:19.79,IMU,-16.11,22.95,-1014.16,1.27,0.14,0.50,7.35,-15.60,-32.70,25.7
2026/04/13 15:23:19.89,IMU,6.84,23.93,-1019.53,0.92,1.35,2.04,6.30,-15.75,-33.00,25.7
2026/04/13 15:23:19.99,IMU,-3.42,21.00,-1006.35,3.05,0.75,1.31,6.15,-15.60,-31.65,25.9
2026/04/13 15:23:20.09,IMU,-2.93,31.25,-1013.67,2.87,0.71,2.76,7.05,-15.45,-31.20,26.1
2026/04/13 15:23:20.19,IMU,3.91,21.97,-1018.07,1.53,-0.10,-1.40,6.60,-15.15,-31.65,25.9
2026/04/13 15:23:20.29,IMU,-3.42,31.74,-1024.41,0.86,1.98,-0.49,5.85,-15.90,-31.65,26.0
2026/04/13 15:23:20.39,IMU,1.46,29.30,-1009.28,0.95,-0.23,-1.12,4.65,-21.00,-28.80,25.6
2026/04/13 15:23:20.49,IMU,-5.37,21.97,-1026.86,2.23,2.87,0.11,7.80,-16.35,-31.65,25.8
2026/04/13 15:23:20.59,IMU,9.28,38.57,-1017.09,1.70,0.53,0.83,6.30,-14.70,-31.20,26.0
2026/04/13 15:23:20.69,IMU,-3.91,26.86,-1015.14,1.25,1.16,2.76,6.30,-16.20,-31.80,25.7
2026/04/13 15:23:20.79,IMU,-1.46,37.60,-1023.44,2.84,1.22,-0.76,7.35,-15.15,-32.40,25.9
2026/04/13 15:23:20.89,IMU,-3.42,26.37,-1013.67,2.72,-0.56,2.13,6.60,-16.35,-29.85,25.9
2026/04/13 15:23:20.99,IMU,5.86,33.69,-1027.83,-0.45,0.50,0.05,6.00,-16.20,-31.20,25.8
2026/04/13 15:23:21.09,IMU,7.32,23.44,-1025.88,0.43,2.64,-0.54,6.60,-15.15,-31.65,25.8
2026/04/13 15:23:21.19,IMU,0.98,36.13,-1014.16,1.45,-0.15,1.35,6.75,-15.75,-31.50,26.0
2026/04/13 15:23:21.30,IMU,0.98,25.88,-1021.97,0.62,4.16,-1.19,7.65,-14.85,-30.90,25.7
2026/04/13 15:23:21.40,IMU,8.30,30.76,-1017.09,-0.34,1.73,1.05,7.35,-14.40,-32.40,25.9
2026/04/13 15:23:21.50,IMU,-0.49,29.30,-1019.04,2.18,-0.28,0.63,6.00,-16.20,-32.55,25.9
2026/04/13 15:23:21.60,IMU,15.63,34.67,-1023.93,1.73,0.45,0.86,6.60,-15.15,-32.40,25.9
2026/04/13 15:23:21.70,IMU,-6.35,27.83,-1009.28,-0.44,0.90,1.27,5.25,-16.95,-31.50,26.1
2026/04/13 15:23:21.80,IMU,2.44,33.20,-1001.46,0.69,2.79,2.05,6.75,-14.70,-31.80,26.0
2026/04/13 15:23:21.90,IMU,7.32,24.90,-1021.97,1.21,1.86,1.60,7.65,-15.90,-30.60,25.7
2026/04/13 15:23:22.00,IMU,3.42,26.37,-1000.00,1.42,1.07,0.44,7.05,-15.45,-31.80,25.9
2026/04/13 15:23:22.10,IMU,2.44,22.46,-1021.48,1.14,2.37,0.97,6.00,-15.75,-31.80,25.8
2026/04/13 15:23:22.20,IMU,-12.70,32.23,-1020.02,0.30,2.18,0.32,6.15,-15.90,-31.35,25.9
2026/04/13 15:23:22.30,IMU,4.39,24.90,-1022.95,-0.24,-0.42,-0.57,6.30,-14.70,-32.55,25.9
2026/04/13 15:23:22.40,IMU,-1.95,16.11,-1026.37,-0.80,2.05,0.93,8.40,-15.60,-31.35,25.7
2026/04/13 15:23:22.50,IMU,-13.18,30.76,-1015.14,1.35,0.03,2.02,6.30,-16.20,-31.80,25.9
2026/04/13 15:23:22.60,IMU,0.49,29.79,-1017.09,2.63,1.27,4.23,5.10,-14.10,-31.65,25.9
2026/04/13 15:23:22.70,IMU,5.86,42.48,-1014.65,1.19,1.96,0.74,5.70,-15.45,-31.20,25.9
2026/04/13 15:23:22.80,IMU,-5.37,34.67,-1025.88,1.61,3.15,1.06,6.75,-14.70,-31.50,25.9
2026/04/13 15:23:22.90,IMU,10.74,16.11,-1018.55,2.85,2.06,0.34,6.90,-14.40,-31.35,25.9
2026/04/13 15:23:23.00,IMU,9.28,25.39,-1017.58,0.96,0.45,0.10,7.65,-15.60,-30.90,25.8
2026/04/13 15:23:23.10,IMU,4.39,21.00,-1020.51,2.42,3.36,1.27,4.50,-15.75,-31.50,25.9
2026/04/13 15:23:23.20,IMU,-16.60,23.44,-1020.51,1.13,1.92,1.61,6.90,-15.90,-31.65,25.9
2026/04/13 15:23:23.30,IMU,-14.65,26.37,-1019.04,0.38,2.66,-1.58,7.35,-16.35,-32.70,25.9
2026/04/13 15:23:23.40,IMU,12.70,20.51,-1013.67,1.22,-1.37,1.52,6.15,-15.60,-30.30,26.1
2026/04/13 15:23:23.50,IMU,7.32,21.48,-1013.18,2.31,1.19,0.06,4.65,-15.60,-33.15,25.8
2026/04/13 15:23:23.60,IMU,5.37,24.41,-1015.14,1.89,2.01,-0.47,5.25,-15.45,-31.20,25.9
2026/04/13 15:23:23.70,IMU,-2.93,23.44,-1020.51,4.02,-0.28,2.00,6.15,-16.80,-31.35,25.8
2026/04/13 15:23:23.80,IMU,-9.77,21.97,-1022.46,2.62,-0.71,0.95,5.70,-14.25,-31.80,25.8
2026/04/13 15:23:23.90,IMU,2.93,30.76,-1009.77,-0.65,2.24,-1.84,6.00,-15.45,-31.50,25.9
2026/04/13 15:23:24.00,IMU,0.98,21.97,-1012.70,0.66,1.56,1.11,7.05,-15.75,-32.25,25.9
2026/04/13 15:23:24.10,IMU,9.77,14.16,-1011.72,-1.42,2.06,1.39,7.35,-15.60,-31.65,25.8
2026/04/13 15:23:24.20,IMU,-12.70,36.13,-1017.09,1.08,-1.05,1.57,6.60,-15.90,-31.65,25.9
2026/04/13 15:23:24.30,IMU,-7.32,35.64,-1005.37,0.89,2.46,0.15,5.70,-16.20,-32.25,26.0
2026/04/13 15:23:24.40,IMU,8.30,18.07,-1020.02,1.08,-0.24,-1.03,6.60,-15.15,-31.35,25.7
2026/04/13 15:23:24.50,IMU,0.98,25.39,-1021.97,3.89,-0.03,1.30,7.95,-15.90,-32.40,25.9
2026/04/13 15:23:24.60,IMU,0.49,22.46,-1018.07,2.78,-1.40,2.56,8.25,-15.00,-32.25,25.8
2026/04/13 15:23:24.70,IMU,1.95,26.37,-1015.14,-0.06,1.57,1.85,6.75,-16.20,-32.25,25.7
2026/04/13 15:23:24.80,IMU,14.16,27.34,-1006.35,-0.29,3.36,-1.24,6.00,-14.25,-31.20,25.9
2026/04/13 15:23:24.90,IMU,2.93,34.18,-1013.18,-0.76,1.65,-1.40,5.40,-15.15,-30.60,25.9
2026/04/13 15:23:25.00,IMU,4.88,27.34,-1018.55,1.56,2.08,0.71,6.75,-14.70,-31.20,26.1
2026/04/13 15:23:25.10,IMU,-3.42,21.00,-1018.07,0.72,-0.76,-0.46,7.95,-14.85,-31.35,25.9
2026/04/13 15:23:25.20,IMU,6.35,40.04,-1019.04,-0.82,0.56,-0.50,6.90,-14.85,-31.35,26.0
2026/04/13 15:23:25.30,IMU,2.93,37.11,-1000.00,3.10,0.53,-0.54,6.75,-14.70,-32.25,25.7
2026/04/13 15:23:25.40,IMU,4.88,20.51,-1013.18,2.45,1.27,-2.56,5.85,-16.35,-31.65,25.9
2026/04/13 15:23:25.50,IMU,9.77,21.48,-1023.44,1.95,2.14,0.10,2.25,-17.25,-27.60,26.1
2026/04/13 15:23:25.60,IMU,19.53,44.92,-1015.14,0.79,1.46,0.11,6.15,-15.15,-32.70,25.9
2026/04/13 15:23:25.70,IMU,0.98,30.76,-1012.21,2.60,1.04,1.20,6.00,-15.75,-32.55,26.0
2026/04/13 15:23:25.80,IMU,3.42,29.30,-1017.09,0.19,1.40,-1.56,6.15,-15.60,-33.15,25.9
2026/04/13 15:23:25.90,IMU,-0.98,20.02,-1016.11,0.73,0.73,-0.15,7.65,-15.90,-31.65,25.8
2026/04/13 15:23:26.01,IMU,0.00,28.32,-1020.51,2.12,-1.56,-0.92,5.25,-14.25,-31.50,25.9
2026/04/13 15:23:26.11,IMU,1.95,21.00,-1010.25,1.15,2.85,0.43,6.30,-16.50,-33.00,25.7
2026/04/13 15:23:26.21,IMU,3.42,35.16,-1012.70,-0.41,0.09,-0.78,6.75,-15.75,-31.80,25.6
2026/04/13 15:23:26.31,IMU,6.35,30.27,-1016.11,0.54,1.40,-1.51,7.05,-16.95,-31.80,25.9
2026/04/13 15:23:26.41,IMU,6.35,41.50,-1022.46,2.61,1.66,1.14,5.40,-14.40,-32.10,26.1
2026/04/13 15:23:26.51,IMU,6.84,30.76,-1013.18,-0.59,2.45,-0.85,7.65,-15.60,-32.40,25.8
2026/04/13 15:23:26.61,IMU,1.46,31.74,-1009.77,1.41,1.98,1.52,7.80,-15.45,-31.80,25.7
2026/04/13 15:23:26.71,IMU,11.72,26.37,-1023.93,1.49,1.97,1.47,7.80,-15.75,-31.50,26.2
2026/04/13 15:23:26.81,IMU,-11.72,34.18,-1021.48,0.53,0.85,0.25,6.90,-14.85,-32.10,25.9
2026/04/13 15:23:26.91,IMU,-2.93,22.95,-1019.04,1.40,1.52,0.54,6.15,-15.90,-31.35,25.9
2026/04/13 15:23:27.01,IMU,-2.93,22.95,-1012.21,1.73,1.29,1.67,5.40,-15.90,-32.10,25.8
2026/04/13 15:23:27.11,IMU,-8.30,26.86,-1017.58,0.77,-0.94,1.65,6.60,-13.65,-31.35,25.7
2026/04/13 15:23:27.21,IMU,10.25,26.86,-999.51,0.56,0.10,-0.27,6.60,-15.15,-30.90,25.9
2026/04/13 15:23:27.31,IMU,-6.35,27.83,-1017.09,2.29,1.98,1.25,6.15,-14.10,-32.10,25.7
2026/04/13 15:23:27.41,IMU,-5.37,38.09,-1014.16,-0.34,3.44,-0.11,8.40,-15.90,-31.65,25.9
2026/04/13 15:23:27.51,IMU,0.98,28.81,-1017.58,0.86,0.69,1.03,6.75,-17.25,-31.20,25.7
2026/04/13 15:23:27.61,IMU,-1.46,19.04,-1014.16,0.66,1.99,1.21,6.90,-16.80,-32.10,26.0
2026/04/13 15:23:27.71,IMU,-11.72,25.88,-1006.84,0.97,1.15,1.08,6.75,-15.00,-31.50,25.9
2026/04/13 15:23:27.81,IMU,3.42,27.34,-1010.25,0.37,-0.27,-0.24,8.25,-15.45,-32.25,25.8
2026/04/13 15:23:27.91,IMU,2.93,18.55,-1008.79,2.66,0.75,0.08,6.60,-15.15,-32.70,25.8
2026/04/13 15:23:28.01,IMU,3.42,21.00,-1020.51,2.37,3.18,1.50,6.30,-15.45,-32.25,25.9
2026/04/13 15:23:28.11,IMU,-2.44,33.20,-1013.18,2.29,2.32,-0.02,6.15,-15.90,-32.40,25.9
2026/04/13 15:23:28.21,IMU,-7.32,20.02,-1020.02,0.21,-0.79,-0.33,5.85,-16.35,-32.10,26.1
2026/04/13 15:23:28.31,IMU,8.30,23.93,-1014.16,1.03,1.70,0.51,6.60,-16.35,-31.35,25.8
2026/04/13 15:23:28.41,IMU,-5.86,20.02,-1008.30,1.38,2.05,0.63,5.85,-15.60,-32.40,25.9
2026/04/13 15:23:28.51,IMU,8.30,8.30,-1009.28,1.31,-0.63,-0.99,6.90,-16.80,-31.35,26.1
2026/04/13 15:23:28.61,IMU,-8.30,39.55,-1017.09,0.16,0.52,-1.32,6.90,-15.15,-31.65,25.9
2026/04/13 15:23:28.71,IMU,4.39,26.86,-1004.39,2.02,0.66,2.24,6.15,-15.90,-32.40,25.5
2026/04/13 15:23:28.81,IMU,4.39,18.07,-1014.16,1.53,-0.37,-1.66,6.15,-15.15,-32.40,25.6
2026/04/13 15:23:28.91,IMU,1.46,31.74,-1023.44,1.70,1.84,-0.79,6.15,-14.85,-31.65,25.8
2026/04/13 15:23:29.01,IMU,5.86,19.53,-1011.72,1.65,2.11,-0.40,5.85,-16.35,-31.65,25.6
2026/04/13 15:23:29.11,IMU,0.00,25.88,-1014.16,2.43,0.11,0.59,6.90,-16.35,-31.35,25.7
2026/04/13 15:23:29.21,IMU,2.44,34.67,-1011.72,1.15,1.37,-0.81,7.95,-15.15,-32.10,25.7
2026/04/13 15:23:29.31,IMU,7.81,15.14,-1009.28,3.32,1.31,2.40,6.60,-16.35,-32.10,25.8
2026/04/13 15:23:29.41,IMU,5.86,45.90,-1014.16,1.08,2.89,-0.69,6.30,-15.00,-31.80,25.9
2026/04/13 15:23:29.51,IMU,-0.98,37.60,-1027.83,3.00,2.01,0.25,6.30,-16.20,-30.75,25.8
2026/04/13 15:23:29.61,IMU,0.49,18.07,-1021.00,0.46,2.21,2.13,6.75,-15.75,-33.00,25.9
2026/04/13 15:23:29.71,IMU,-6.84,23.44,-1010.74,-0.68,-0.08,-0.89,6.60,-15.15,-30.90,25.9
2026/04/13 15:23:29.81,IMU,4.39,31.25,-1019.53,0.68,1.54,0.13,6.30,-16.50,-31.80,26.3
2026/04/13 15:23:29.91,IMU,8.30,14.65,-1027.83,1.91,0.30,0.61,5.85,-15.15,-30.60,25.8
2026/04/13 15:23:30.01,IMU,0.98,30.27,-1025.39,1.09,-0.19,-0.67,5.70,-14.25,-31.80,25.4
2026/04/13 15:23:30.11,IMU,11.72,31.74,-1015.63,0.85,0.93,-0.95,6.30,-16.20,-31.20,25.9
2026/04/13 15:23:30.21,IMU,1.46,33.20,-1017.58,1.89,0.15,1.69,6.15,-15.60,-32.10,25.9
2026/04/13 15:23:30.32,IMU,7.32,25.39,-1013.67,0.56,0.95,-1.64,4.95,-16.50,-31.80,25.9
2026/04/13 15:23:30.42,IMU,-6.35,25.39,-1021.48,-0.35,-0.28,-0.05,5.85,-14.85,-32.10,25.9
2026/04/13 15:23:30.52,IMU,7.81,19.53,-1007.81,-0.89,1.34,1.25,5.85,-15.15,-30.60,26.1
2026/04/13 15:23:30.62,IMU,-9.77,34.67,-1017.09,1.95,1.49,-0.05,6.00,-16.50,-31.50,25.9
2026/04/13 15:23:30.72,IMU,14.16,33.20,-1024.90,1.23,-0.27,-0.92,5.10,-16.35,-31.65,26.1
2026/04/13 15:23:30.82,IMU,1.46,29.30,-1008.30,2.55,2.74,-0.49,6.00,-13.05,-32.25,25.8
2026/04/13 15:23:30.92,IMU,24.90,23.93,-1008.30,1.17,0.44,0.39,7.05,-16.20,-33.00,26.0
2026/04/13 15:23:31.02,IMU,5.86,26.37,-1012.21,0.76,2.52,0.02,6.30,-14.25,-31.50,26.1
2026/04/13 15:23:31.12,IMU,4.39,30.76,-1009.77,0.44,0.40,2.02,6.60,-15.90,-32.10,25.9
2026/04/13 15:23:31.22,IMU,17.09,23.93,-1017.09,0.37,0.03,0.33,6.60,-15.60,-33.45,25.6
2026/04/13 15:23:31.32,IMU,3.42,29.79,-1018.07,0.89,-0.16,-0.20,6.00,-15.75,-33.00,25.9
2026/04/13 15:23:31.42,IMU,3.42,21.97,-1011.23,1.88,1.19,0.28,7.35,-14.85,-31.65,25.9
2026/04/13 15:23:31.52,IMU,-7.81,23.44,-1024.90,-0.70,1.94,0.21,6.15,-14.10,-32.40,25.9
2026/04/13 15:23:31.62,IMU,1.46,41.02,-1020.02,1.70,2.05,0.96,2.70,-17.25,-27.90,25.8
2026/04/13 15:23:31.72,IMU,-1.46,24.41,-1014.16,1.69,0.85,1.21,6.00,-15.00,-30.75,26.0
2026/04/13 15:23:31.82,IMU,0.98,25.88,-1019.04,0.26,0.50,0.01,7.05,-15.75,-33.00,25.8
2026/04/13 15:23:31.92,IMU,7.81,23.93,-1013.67,1.06,1.25,-1.86,6.60,-16.35,-32.40,25.9
2026/04/13 15:23:32.02,IMU,3.91,34.67,-1012.21,0.79,-0.33,1.71,6.30,-16.20,-32.55,25.9
2026/04/13 15:23:32.12,IMU,-10.74,40.04,-1008.30,2.78,3.73,-0.97,7.35,-14.40,-33.15,25.9
2026/04/13 15:23:32.22,IMU,-1.46,21.48,-1006.35,1.10,1.12,1.59,7.35,-16.35,-31.65,26.0
2026/04/13 15:23:32.32,IMU,3.42,43.95,-1018.55,1.78,-0.27,-0.95,6.00,-14.70,-32.25,25.9
2026/04/13 15:23:32.42,IMU,21.97,30.27,-1013.67,1.83,2.33,-1.41,5.25,-16.50,-32.25,25.9
2026/04/13 15:23:32.52,IMU,-1.46,22.46,-1011.23,2.53,3.82,1.10,6.90,-16.35,-32.10,25.9
2026/04/13 15:23:32.62,IMU,-0.98,33.20,-1021.00,1.38,1.13,1.84,3.30,-17.10,-26.70,26.0
2026/04/13 15:23:32.72,IMU,0.98,23.93,-1014.65,2.76,3.21,-1.11,5.70,-15.45,-31.50,26.0
2026/04/13 15:23:32.82,IMU,-3.42,12.21,-1019.53,1.79,-0.13,0.08,7.50,-14.70,-31.20,25.7
2026/04/13 15:23:32.92,IMU,-8.30,33.69,-1010.74,2.47,0.23,1.50,5.10,-15.90,-31.35,25.8
2026/04/13 15:23:33.02,IMU,-12.70,25.88,-1013.67,3.04,0.85,-0.37,6.30,-15.75,-30.45,25.7
2026/04/13 15:23:33.12,IMU,6.35,39.06,-1015.14,1.68,0.13,0.51,6.15,-15.90,-30.60,25.9
2026/04/13 15:23:33.22,IMU,-3.91,16.11,-1014.65,0.37,0.08,0.95,5.40,-15.60,-32.10,25.9
2026/04/13 15:23:33.32,IMU,-2.93,26.37,-1015.63,3.56,-0.30,2.89,6.00,-15.45,-32.25,25.9
2026/04/13 15:23:33.42,IMU,7.81,18.55,-1014.16,0.83,0.72,0.42,6.00,-16.50,-32.25,25.6
2026/04/13 15:23:33.52,IMU,16.11,25.88,-1015.63,1.89,0.21,1.53,6.90,-16.80,-31.35,25.9
2026/04/13 15:23:33.64,IMU,12.21,27.34,-1016.11,1.81,-0.68,1.05,6.90,-17.55,-28.50,26.1
2026/04/13 15:23:33.74,IMU,19.04,28.81,-1015.14,1.48,2.06,0.94,5.70,-15.00,-32.25,26.0
2026/04/13 15:23:33.84,IMU,10.74,28.81,-1020.51,1.90,2.25,3.34,6.60,-15.15,-30.60,25.9
2026/04/13 15:23:33.94,IMU,7.81,34.67,-1012.21,1.01,3.50,1.43,7.35,-13.65,-30.90,26.1
2026/04/13 15:23:34.04,IMU,3.42,37.60,-1014.16,-0.39,-0.40,-0.08,6.15,-15.90,-31.35,26.0
2026/04/13 15:23:34.14,IMU,-0.49,28.32,-1009.28,1.85,-1.36,2.57,6.00,-15.00,-33.00,26.1
2026/04/13 15:23:34.24,IMU,8.30,20.51,-1012.70,0.37,-0.60,-0.06,6.15,-15.15,-32.40,25.7
2026/04/13 15:23:34.34,IMU,-0.98,16.60,-1026.37,-0.27,1.01,0.54,6.15,-16.35,-31.65,25.8
2026/04/13 15:23:34.44,IMU,0.98,26.86,-1027.34,1.08,2.31,-0.82,6.90,-16.35,-30.90,25.7
2026/04/13 15:23:34.54,IMU,16.11,29.79,-1011.23,0.55,0.82,-1.63,6.30,-14.70,-33.00,25.9
2026/04/13 15:23:34.64,IMU,1.95,26.86,-1017.58,0.13,1.16,-0.82,6.90,-15.60,-31.80,26.0
2026/04/13 15:23:34.74,IMU,6.84,19.04,-1014.16,-1.05,2.18,1.60,5.85,-15.60,-32.10,25.7
2026/04/13 15:23:34.84,IMU,4.88,26.37,-1002.44,0.39,0.47,-0.89,7.65,-14.10,-32.10,25.7
2026/04/13 15:23:34.94,IMU,1.95,16.60,-1017.58,4.09,1.97,-0.98,5.40,-15.90,-31.35,26.0
2026/04/13 15:23:35.04,IMU,0.00,32.23,-1015.63,2.32,0.40,-0.31,7.95,-14.85,-32.10,25.8
2026/04/13 15:23:35.14,IMU,1.46,26.37,-1014.65,3.01,2.66,4.44,6.75,-15.75,-32.25,26.0
2026/04/13 15:23:35.24,IMU,2.44,33.20,-1007.32,0.88,-0.80,0.28,6.90,-15.90,-32.70,26.0
2026/04/13 15:23:35.34,IMU,9.77,31.25,-1019.53,-0.89,2.43,-1.79,7.65,-15.15,-30.90,26.0
2026/04/13 15:23:35.44,IMU,7.32,29.30,-1023.44,2.86,1.48,1.20,5.85,-14.85,-30.60,26.1
2026/04/13 15:23:35.54,IMU,-1.46,38.09,-1009.77,3.24,0.17,1.18,5.85,-15.60,-32.10,25.6
2026/04/13 15:23:35.64,IMU,14.65,23.93,-1014.65,1.42,0.86,-0.63,7.50,-15.45,-32.25,26.1
2026/04/13 15:23:35.74,IMU,-10.74,24.41,-1018.55,2.39,1.85,1.27,6.30,-15.45,-32.55,25.8
2026/04/13 15:23:35.84,IMU,0.00,32.71,-1015.14,0.73,1.39,-1.32,6.90,-15.60,-32.40,25.7
2026/04/13 15:23:35.94,IMU,-1.95,30.76,-1012.70,0.85,2.48,0.33,7.65,-15.15,-32.40,26.2
2026/04/13 15:23:36.04,IMU,7.81,24.41,-998.05,2.52,1.95,0.15,6.60,-15.90,-32.10,25.9
2026/04/13 15:23:36.14,IMU,-1.95,35.16,-1013.67,2.40,-0.79,0.79,5.25,-15.00,-31.80,25.9
2026/04/13 15:23:36.24,IMU,8.79,21.97,-1013.18,0.81,0.85,0.81,5.40,-15.15,-32.40,26.1
2026/04/13 15:23:36.34,IMU,-1.95,25.88,-1015.14,1.47,2.43,1.07,7.50,-15.75,-32.25,25.8
2026/04/13 15:23:36.44,IMU,2.44,29.30,-1014.65,0.05,-0.88,0.77,6.00,-14.25,-30.45,25.7
2026/04/13 15:23:36.54,IMU,6.84,20.51,-1005.86,0.23,1.11,0.66,6.30,-15.00,-31.20,26.0
2026/04/13 15:23:36.64,IMU,4.39,35.16,-1020.02,1.47,1.30,0.66,6.60,-15.15,-30.90,25.8
2026/04/13 15:23:36.74,IMU,6.84,23.93,-1024.90,0.17,2.71,-0.51,5.85,-15.60,-31.35,25.9
2026/04/13 15:23:36.84,IMU,7.32,23.44,-1006.35,1.51,1.35,-1.98,6.60,-15.60,-30.90,25.9
2026/04/13 15:23:36.94,IMU,4.88,29.79,-1007.32,1.00,0.64,0.11,6.15,-14.85,-31.35,26.0
2026/04/13 15:23:37.04,IMU,-0.98,30.76,-1023.44,1.76,0.75,-0.18,7.05,-14.25,-32.55,25.9
2026/04/13 15:23:37.14,IMU,0.49,32.71,-1026.86,0.41,1.88,0.61,5.70,-15.45,-32.55,26.1
2026/04/13 15:23:37.24,IMU,15.14,27.34,-1002.93,0.92,1.62,-2.14,7.50,-16.20,-33.30,25.9
2026/04/13 15:23:37.34,IMU,12.21,23.93,-1020.51,1.71,0.42,-0.89,7.50,-15.45,-29.70,26.1
2026/04/13 15:23:37.44,IMU,2.44,26.37,-1012.21,0.55,2.50,1.65,7.65,-15.60,-30.90,26.1
2026/04/13 15:23:37.54,IMU,-1.46,14.65,-1007.81,1.31,2.12,-1.46,7.35,-15.90,-32.10,26.1
2026/04/13 15:23:37.64,IMU,1.46,29.30,-1016.60,3.29,1.22,-0.26,5.85,-15.60,-32.10,25.7
2026/04/13 15:23:37.74,IMU,9.28,28.32,-1009.28,0.08,1.65,-2.33,5.85,-16.35,-31.35,26.0
2026/04/13 15:23:37.84,IMU,4.39,24.41,-1015.14,0.59,0.73,-0.07,6.60,-14.40,-32.70,25.9
2026/04/13 15:23:37.94,IMU,2.44,39.06,-1022.95,1.23,0.78,2.56,7.65,-15.90,-33.15,25.9
2026/04/13 15:23:38.05,IMU,3.42,25.88,-1015.14,-0.06,2.15,-2.01,5.25,-15.75,-32.55,25.7
2026/04/13 15:23:38.15,IMU,4.88,16.11,-1013.67,0.78,0.47,0.41,6.15,-15.90,-32.70,26.0
2026/04/13 15:23:38.25,IMU,-1.46,33.20,-1012.70,1.31,0.92,-0.25,6.00,-15.45,-31.50,26.1
2026/04/13 15:23:38.35,IMU,-2.44,30.76,-1027.83,1.84,0.95,2.51,6.00,-16.20,-31.20,25.7
2026/04/13 15:23:38.45,IMU,7.32,17.09,-1018.07,0.65,1.22,0.59,6.15,-16.35,-31.65,25.9
2026/04/13 15:23:38.55,IMU,13.18,14.16,-1015.63,1.63,-0.67,-1.13,5.70,-15.75,-31.50,25.9
2026/04/13 15:23:38.65,IMU,0.49,28.32,-1010.74,0.65,2.27,1.09,5.85,-14.85,-30.90,26.1
2026/04/13 15:23:38.75,IMU,21.97,21.97,-1015.14,2.87,-2.36,-1.49,7.05,-15.00,-32.25,25.8
2026/04/13 15:23:38.85,IMU,2.93,17.58,-1021.00,2.40,2.75,-0.94,8.70,-15.90,-33.15,25.8
2026/04/13 15:23:38.95,IMU,-2.44,25.39,-1013.67,2.78,-1.29,1.31,6.60,-16.80,-33.15,25.8
2026/04/13 15:23:39.05,IMU,3.42,23.44,-1010.25,0.54,2.92,0.37,7.35,-14.85,-30.90,25.9
2026/04/13 15:23:39.15,IMU,5.37,24.41,-1027.83,2.34,0.10,2.07,6.15,-14.40,-32.10,25.9
2026/04/13 15:23:39.25,IMU,3.91,29.30,-1015.63,-0.54,1.21,0.92,6.15,-16.80,-31.65,25.7
2026/04/13 15:23:39.35,IMU,13.67,30.76,-1007.32,-0.02,-0.77,-1.26,5.85,-16.35,-31.35,25.7
2026/04/13 15:23:39.45,IMU,12.70,30.27,-1010.25,1.47,2.01,-0.11,5.25,-16.20,-31.80,25.9
2026/04/13 15:23:39.55,IMU,11.72,29.30,-1022.46,0.07,5.21,2.15,6.75,-15.75,-30.45,26.1
2026/04/13 15:23:39.65,IMU,5.37,29.30,-1012.21,0.39,1.04,1.38,6.30,-15.75,-31.50,25.9
2026/04/13 15:23:39.75,IMU,-0.49,28.81,-1027.83,0.99,2.67,1.63,7.35,-15.60,-31.35,25.9
2026/04/13 15:23:39.85,IMU,-3.91,42.97,-1003.42,0.41,-1.18,0.42,7.65,-15.60,-32.10,25.9
2026/04/13 15:23:39.95,IMU,5.86,31.25,-1017.09,1.93,0.43,-0.50,7.80,-16.50,-33.00,26.0
2026/04/13 15:23:40.05,IMU,13.67,34.67,-1010.25,3.41,3.71,-0.82,6.90,-15.15,-31.65,25.9
2026/04/13 15:23:40.15,IMU,10.74,9.77,-1011.72,0.98,2.59,1.16,5.85,-16.80,-32.10,26.1
2026/04/13 15:23:40.25,IMU,2.93,38.57,-1011.23,1.15,0.91,-0.76,7.35,-15.15,-31.65,25.9
2026/04/13 15:23:40.35,IMU,0.00,26.37,-1020.51,1.17,1.56,1.60,6.75,-16.50,-32.55,26.0
2026/04/13 15:23:40.45,IMU,5.86,28.32,-1013.67,2.37,1.96,-0.60,6.75,-15.75,-31.80,25.9
2026/04/13 15:23:40.55,IMU,-6.35,35.16,-1021.48,2.77,2.73,0.62,6.75,-16.20,-30.75,25.7
2026/04/13 15:23:40.65,IMU,-1.46,30.76,-1009.28,1.01,0.18,-0.59,6.30,-15.75,-31.80,26.1
2026/04/13 15:23:40.75,IMU,11.72,34.18,-1011.23,1.15,-0.07,-1.58,5.70,-15.75,-31.80,25.9
2026/04/13 15:23:40.85,IMU,-1.95,42.97,-1006.84,2.85,0.45,3.80,6.15,-15.15,-32.10,25.8
2026/04/13 15:23:40.95,IMU,-1.46,36.62,-1009.28,1.95,-1.04,1.18,6.90,-15.15,-32.10,25.9
2026/04/13 15:23:41.05,IMU,14.65,15.63,-1020.51,2.01,1.60,-0.18,6.15,-14.85,-32.40,26.1
2026/04/13 15:23:41.15,IMU,9.77,31.74,-1003.91,2.33,1.26,0.17,7.05,-15.45,-31.50,25.9
2026/04/13 15:23:41.25,IMU,20.51,30.27,-1016.60,3.43,1.73,1.43,4.65,-15.60,-31.35,26.1
2026/04/13 15:23:41.35,IMU,9.28,33.20,-1005.37,1.06,0.83,-0.09,6.75,-16.20,-31.50,26.0
2026/04/13 15:23:41.45,IMU,6.35,18.07,-1017.09,1.13,2.47,-0.02,6.60,-16.35,-32.10,26.1
2026/04/13 15:23:41.55,IMU,8.30,34.67,-1017.09,-0.18,1.71,0.84,6.15,-17.55,-31.35,26.0
2026/04/13 15:23:41.65,IMU,18.07,22.46,-1015.63,1.34,2.06,-0.56,6.60,-16.35,-33.15,26.0
2026/04/13 15:23:41.75,IMU,9.77,27.34,-1016.11,1.08,1.75,-1.45,6.75,-14.70,-30.75,25.8
2026/04/13 15:23:41.85,IMU,12.21,50.29,-1010.25,1.00,0.05,0.46,6.90,-16.35,-31.35,25.9
2026/04/13 15:23:41.95,IMU,-14.65,38.57,-1027.34,0.82,0.44,-0.69,7.50,-15.75,-31.80,26.1
2026/04/13 15:23:42.05,IMU,1.95,46.39,-1019.53,0.92,2.21,1.26,6.75,-15.75,-31.80,25.9
2026/04/13 15:23:42.15,IMU,-3.42,26.37,-1010.74,2.71,2.11,1.34,6.75,-15.75,-31.50,26.1
2026/04/13 15:23:42.25,IMU,-2.44,23.93,-1007.81,-1.45,0.37,-0.27,5.10,-15.60,-32.10,26.0
2026/04/13 15:23:42.35,IMU,16.11,33.69,-1009.28,0.34,1.67,-0.75,5.25,-16.20,-32.55,26.1
2026/04/13 15:23:42.45,IMU,-7.32,43.46,-1005.37,-0.31,0.81,1.98,6.00,-16.20,-32.25,25.9
2026/04/13 15:23:42.55,IMU,9.77,18.55,-1020.51,1.14,0.23,0.91,6.75,-15.00,-30.75,25.9
2026/04/13 15:23:42.65,IMU,-1.95,38.57,-1011.72,1.40,2.66,1.44,5.70,-15.75,-33.30,26.1
2026/04/13 15:23:42.76,IMU,-3.91,39.06,-1024.90,1.11,2.84,0.96,7.50,-15.00,-31.80,25.9
2026/04/13 15:23:42.86,IMU,0.49,31.25,-1016.11,-0.05,1.23,-1.36,6.00,-16.20,-32.25,25.9
2026/04/13 15:23:42.96,IMU,3.91,47.85,-1010.25,2.61,1.90,1.24,6.60,-15.60,-32.10,26.1
2026/04/13 15:23:43.06,IMU,-7.81,32.71,-1005.37,1.12,1.10,1.50,5.25,-16.50,-31.50,25.9
2026/04/13 15:23:43.16,IMU,-8.30,26.86,-1012.70,0.02,1.88,-0.26,6.00,-16.50,-31.50,26.1
2026/04/13 15:23:43.26,IMU,0.00,26.37,-1021.48,2.79,3.35,-0.04,6.75,-16.50,-30.45,26.1
2026/04/13 15:23:43.36,IMU,4.39,37.60,-1022.95,1.59,1.13,0.52,5.40,-15.60,-31.65,26.1
2026/04/13 15:23:43.46,IMU,-0.98,32.23,-1012.21,1.73,3.67,-1.79,7.05,-15.45,-33.30,25.9
2026/04/13 15:23:43.56,IMU,2.93,27.83,-1017.58,0.76,1.68,0.63,6.60,-15.90,-31.35,25.9
2026/04/13 15:23:43.66,IMU,18.55,20.51,-1023.93,2.82,-0.28,-1.31,6.75,-17.25,-32.25,25.7
2026/04/13 15:23:43.76,IMU,0.00,23.44,-1023.93,2.02,1.04,0.30,6.15,-15.15,-30.90,25.7
2026/04/13 15:23:43.86,IMU,5.37,34.67,-1013.67,2.02,0.78,0.25,7.65,-14.10,-31.65,25.9
2026/04/13 15:23:43.96,IMU,0.00,26.37,-1028.81,1.43,4.74,1.08,6.15,-15.15,-30.60,25.9
2026/04/13 15:23:44.06,IMU,17.09,24.41,-1021.97,2.97,1.20,0.60,7.50,-16.95,-30.00,25.8
2026/04/13 15:23:44.16,IMU,0.00,25.88,-1016.60,1.66,1.54,-0.90,7.05,-16.50,-33.00,26.1
2026/04/13 15:23:44.26,IMU,5.37,21.97,-1012.21,0.53,1.40,-1.34,6.90,-15.60,-32.40,26.0
2026/04/13 15:23:44.36,IMU,8.30,26.37,-1019.04,0.69,2.03,-0.51,6.75,-15.45,-32.25,25.9
2026/04/13 15:23:44.46,IMU,4.39,28.32,-1025.88,-1.29,1.88,-1.60,7.05,-17.70,-30.75,25.7
2026/04/13 15:23:44.56,IMU,-8.79,21.48,-1019.04,-0.33,-1.23,-1.06,6.00,-17.25,-32.25,25.9
2026/04/13 15:23:44.66,IMU,2.44,30.76,-1015.63,0.70,-0.18,-1.16,8.55,-16.50,-30.75,25.9
2026/04/13 15:23:44.76,IMU,-6.84,26.86,-1013.67,1.16,0.59,0.49,6.90,-15.90,-30.30,25.9
2026/04/13 15:23:44.86,IMU,-2.93,19.04,-1018.07,0.73,2.64,1.65,5.70,-15.00,-30.75,25.9
2026/04/13 15:23:44.96,IMU,-5.86,18.07,-1018.55,0.31,1.94,-0.97,6.60,-14.40,-32.10,26.1
2026/04/13 15:23:45.06,IMU,3.91,34.67,-1014.65,1.63,-1.43,0.01,6.30,-15.75,-31.80,25.9
2026/04/13 15:23:45.16,IMU,-7.81,34.18,-1023.93,2.44,0.90,0.78,7.80,-15.45,-33.00,25.9
2026/04/13 15:23:45.26,IMU,17.58,31.25,-1017.58,0.83,2.51,0.55,5.70,-15.00,-31.80,25.9
2026/04/13 15:23:45.36,IMU,-6.84,21.00,-1016.60,-0.68,4.75,1.01,7.65,-15.15,-31.65,26.1
2026/04/13 15:23:45.46,IMU,2.93,10.74,-1023.44,1.24,0.88,-0.05,6.60,-15.15,-30.90,26.1
2026/04/13 15:23:45.56,IMU,-7.32,38.57,-1018.07,-0.85,1.79,1.15,7.05,-16.50,-31.80,25.9
2026/04/13 15:23:45.66,IMU,10.74,32.23,-1018.07,1.95,0.56,1.27,5.25,-16.20,-32.25,26.0
2026/04/13 15:23:45.76,IMU,3.42,6.35,-1017.09,3.52,2.18,0.77,6.60,-15.60,-29.85,25.9
2026/04/13 15:23:45.86,IMU,7.81,30.76,-1021.48,1.40,1.53,0.47,2.25,-18.00,-26.40,26.0
2026/04/13 15:23:45.96,IMU,0.49,26.37,-1019.53,1.71,1.09,-2.34,6.15,-15.90,-30.90,26.1
2026/04/13 15:23:46.06,IMU,10.25,22.46,-1016.11,0.39,0.65,-1.48,6.90,-16.80,-31.65,25.9
2026/04/13 15:23:46.16,IMU,-10.74,17.09,-1016.11,0.37,-0.12,1.76,6.75,-16.20,-31.80,25.9
2026/04/13 15:23:46.26,IMU,-12.21,37.60,-1012.21,1.27,0.51,1.18,6.60,-14.85,-32.40,25.9
2026/04/13 15:23:46.36,IMU,-0.49,27.34,-1019.04,1.24,1.11,3.31,6.30,-15.75,-31.50,25.9
2026/04/13 15:23:46.46,IMU,6.84,28.81,-1014.65,0.82,-2.15,0.03,6.60,-15.90,-32.10,25.7
2026/04/13 15:23:46.56,IMU,10.25,21.97,-1010.74,4.66,0.53,3.38,6.75,-15.75,-32.25,25.9
2026/04/13 15:23:46.66,IMU,-9.28,21.48,-999.02,1.35,2.01,1.62,7.50,-16.20,-30.75,25.9
2026/04/13 15:23:46.76,IMU,7.81,30.76,-1021.00,1.43,2.24,-0.33,6.00,-16.20,-31.50,26.1
2026/04/13 15:23:46.88,IMU,15.63,30.27,-1013.18,1.39,2.65,-1.68,3.45,-18.00,-25.80,25.9
2026/04/13 15:23:46.98,IMU,7.32,31.74,-1010.74,0.38,1.34,0.41,5.70,-15.00,-31.50,25.9
2026/04/13 15:23:47.08,IMU,1.95,38.57,-1029.30,-0.59,0.06,-1.05,6.15,-16.35,-32.10,25.8
2026/04/13 15:23:47.18,IMU,14.65,31.25,-1030.76,1.47,2.07,1.39,7.50,-15.75,-31.80,26.1
2026/04/13 15:23:47.28,IMU,3.42,32.71,-1017.58,0.02,0.95,1.47,7.35,-18.30,-30.90,26.0
2026/04/13 15:23:47.38,IMU,-4.88,22.46,-1015.63,2.44,-0.15,-0.89,7.35,-14.10,-31.35,26.1
2026/04/13 15:23:47.48,IMU,-0.49,24.90,-1015.63,2.19,0.69,-0.39,6.30,-16.20,-31.20,26.1
2026/04/13 15:23:47.58,IMU,3.91,39.06,-1031.25,0.68,1.04,-0.87,6.00,-14.25,-31.20,26.1
2026/04/13 15:23:47.68,IMU,-0.98,28.32,-1005.37,0.01,-1.56,-0.19,7.05,-16.50,-31.20,25.9
2026/04/13 15:23:47.78,IMU,-5.86,29.30,-1010.74,1.08,0.53,-0.66,7.05,-15.45,-32.25,25.9
2026/04/13 15:23:47.88,IMU,4.39,30.76,-1016.11,0.40,-0.89,0.41,6.75,-16.20,-32.25,25.9
2026/04/13 15:23:47.98,IMU,3.42,16.60,-1022.46,2.79,1.34,0.82,7.95,-14.40,-31.35,26.1
2026/04/13 15:23:48.08,IMU,-1.46,32.71,-1004.39,1.17,1.67,0.44,6.60,-16.35,-30.60,25.9
2026/04/13 15:23:48.18,IMU,-11.23,24.41,-1025.39,0.36,2.40,-0.56,7.35,-15.60,-30.90,25.9
2026/04/13 15:23:48.28,IMU,11.23,35.64,-1012.21,0.43,0.11,0.69,5.40,-15.90,-31.35,26.1
2026/04/13 15:23:48.38,IMU,1.46,27.83,-1021.48,2.11,0.95,-0.60,7.80,-16.50,-31.50,26.2
2026/04/13 15:23:48.48,IMU,12.21,36.13,-1013.67,2.25,1.44,0.64,6.00,-15.45,-31.20,26.3
2026/04/13 15:23:48.58,IMU,17.09,23.44,-1019.04,1.07,1.77,0.29,6.15,-15.60,-31.65,26.2
2026/04/13 15:23:48.68,IMU,1.46,34.18,-1011.23,1.34,1.74,0.56,5.70,-15.75,-33.00,26.1
2026/04/13 15:23:48.78,IMU,-4.39,31.25,-1005.37,-0.11,2.13,1.27,6.15,-15.75,-32.55,26.1
2026/04/13 15:23:48.88,IMU,4.88,30.27,-1015.63,1.51,0.31,1.52,6.30,-16.20,-31.20,25.9
2026/04/13 15:23:48.98,IMU,7.32,23.93,-1017.09,3.30,1.39,-1.31,7.65,-16.35,-32.40,25.9
2026/04/13 15:23:49.08,IMU,6.84,23.93,-1015.14,1.36,0.83,0.30,5.85,-16.35,-31.35,26.1
2026/04/13 15:23:49.18,IMU,-4.88,24.90,-1018.55,1.38,1.87,0.95,6.60,-15.90,-33.45,26.2
2026/04/13 15:23:49.28,IMU,14.16,26.37,-1013.67,1.19,0.37,-0.63,5.70,-14.25,-30.75,26.0
2026/04/13 15:23:49.38,IMU,-3.42,30.27,-1015.63,-0.29,-0.01,-0.72,4.50,-15.00,-30.75,26.2
2026/04/13 15:23:49.48,IMU,-6.84,34.67,-1022.46,1.69,1.08,-1.88,6.00,-15.00,-31.20,25.7
2026/04/13 15:23:49.58,IMU,8.79,31.25,-1021.00,1.80,-0.67,-1.69,6.30,-15.45,-31.50,26.1
2026/04/13 15:23:49.68,IMU,-16.11,32.71,-1015.63,2.19,-0.89,1.09,6.60,-15.15,-32.40,26.3
2026/04/13 15:23:49.78,IMU,-0.98,20.51,-1020.02,2.56,2.98,1.56,5.85,-17.55,-31.35,26.1
2026/04/13 15:23:49.88,IMU,1.46,33.69,-1015.63,2.01,1.14,0.69,7.80,-15.45,-31.50,25.8
2026/04/13 15:23:49.98,IMU,-0.49,19.04,-1021.00,2.22,-0.57,-0.59,6.90,-17.55,-31.65,25.9
2026/04/13 15:23:50.08,IMU,-12.70,21.00,-1018.55,1.44,-1.11,0.65,6.15,-15.90,-30.90,25.9
2026/04/13 15:23:50.18,IMU,6.84,26.37,-1024.41,-0.11,4.46,-0.18,6.00,-15.00,-31.80,25.7
2026/04/13 15:23:50.28,IMU,1.46,29.79,-1013.18,1.13,1.02,2.39,7.05,-15.75,-31.80,25.8
2026/04/13 15:23:50.39,IMU,-5.37,30.27,-1013.67,0.80,1.95,-0.18,6.60,-15.15,-32.10,25.9
2026/04/13 15:23:50.49,IMU,4.39,25.39,-1017.09,0.37,2.02,0.50,6.90,-15.60,-31.65,25.9
2026/04/13 15:23:50.59,IMU,4.39,26.86,-1020.51,0.30,1.95,-0.16,6.15,-16.80,-31.35,25.9
2026/04/13 15:23:50.69,IMU,9.28,20.51,-1025.39,1.46,0.70,0.06,7.80,-14.25,-31.50,25.9
2026/04/13 15:23:50.79,IMU,-10.25,24.90,-1021.00,1.66,1.06,-0.73,7.65,-15.15,-32.40,26.1
2026/04/13 15:23:50.89,IMU,6.35,32.71,-1010.25,1.85,1.31,-3.60,7.05,-15.00,-30.75,26.0
2026/04/13 15:23:50.99,IMU,-4.88,22.46,-1026.37,-0.05,-0.82,1.11,6.75,-16.20,-31.80,26.1
2026/04/13 15:23:51.09,IMU,15.63,35.16,-1015.14,0.47,2.10,0.79,6.15,-14.85,-30.90,25.9
2026/04/13 15:23:51.19,IMU,7.32,25.39,-1025.88,1.74,1.82,0.19,7.35,-14.85,-30.30,26.1
2026/04/13 15:23:51.29,IMU,-4.39,33.69,-1010.25,-0.12,-0.22,0.24,6.00,-15.00,-32.25,25.9
2026/04/13 15:23:51.39,IMU,1.46,19.04,-1011.72,1.22,1.62,-0.87,6.60,-15.60,-31.35,26.1
2026/04/13 15:23:51.49,IMU,-3.42,21.48,-1017.58,0.18,0.79,0.50,4.95,-14.70,-30.00,25.7
2026/04/13 15:23:51.59,IMU,6.35,17.09,-1016.60,0.53,-0.06,-0.44,6.60,-15.15,-33.45,25.8
2026/04/13 15:23:51.69,IMU,-5.86,31.25,-1018.07,1.11,2.59,0.34,5.85,-16.35,-32.10,26.0
2026/04/13 15:23:51.79,IMU,-5.37,36.62,-1016.11,1.27,0.67,1.24,6.00,-15.75,-31.50,25.9
2026/04/13 15:23:51.89,IMU,6.35,29.79,-1010.74,2.37,0.88,1.04,7.35,-16.80,-31.65,25.9
2026/04/13 15:23:51.99,IMU,3.42,18.55,-1012.70,0.99,2.05,1.09,6.00,-16.20,-31.80,26.2
2026/04/13 15:23:52.09,IMU,1.46,16.11,-1019.04,2.19,1.06,0.66,6.15,-16.35,-32.10,26.0
2026/04/13 15:23:52.19,IMU,2.93,28.32,-1015.14,0.21,1.08,2.26,6.15,-15.15,-31.35,25.8
2026/04/13 15:23:52.29,IMU,4.88,30.27,-1025.39,1.40,-0.36,-0.46,6.90,-14.40,-31.35,25.9
2026/04/13 15:23:52.39,IMU,11.23,31.74,-1009.28,0.43,1.69,0.78,5.85,-15.60,-29.10,25.9
2026/04/13 15:23:52.49,IMU,-0.49,28.32,-1020.02,1.71,2.21,0.57,6.60,-14.40,-32.40,26.1
2026/04/13 15:23:52.59,IMU,5.37,32.71,-1021.00,1.72,1.37,2.05,6.00,-14.70,-31.80,25.8
2026/04/13 15:23:52.69,IMU,4.88,30.76,-1009.77,0.97,1.64,0.92,5.70,-15.45,-31.50,25.7
2026/04/13 15:23:52.79,IMU,12.70,26.37,-1019.53,0.66,1.44,1.19,6.75,-14.70,-32.25,25.9
2026/04/13 15:23:52.89,IMU,-4.39,29.79,-1025.88,-0.17,0.31,0.82,7.05,-15.45,-32.55,26.0
2026/04/13 15:23:52.99,IMU,-1.46,11.72,-1013.18,1.02,1.04,0.33,7.65,-16.35,-30.60,25.7
2026/04/13 15:23:53.09,IMU,9.77,10.25,-1018.55,0.64,1.11,-1.86,5.85,-14.40,-32.70,25.9
2026/04/13 15:23:53.19,IMU,24.90,30.27,-1027.34,3.10,2.86,-1.28,6.75,-15.00,-32.55,26.1
2026/04/13 15:23:53.29,IMU,3.91,40.04,-1007.32,0.79,1.17,0.19,5.25,-15.75,-32.25,26.3
2026/04/13 15:23:53.39,IMU,-0.98,10.74,-1030.76,1.39,0.51,1.77,6.30,-16.95,-32.55,25.9
2026/04/13 15:23:53.49,IMU,-3.42,34.18,-1026.37,2.02,2.18,0.62,5.10,-16.80,-31.65,26.2
2026/04/13 15:23:53.59,IMU,1.95,30.76,-1010.74,1.85,1.54,0.04,6.75,-15.75,-32.55,26.0
2026/04/13 15:23:53.69,IMU,-11.23,38.09,-1020.51,1.39,-0.22,-0.31,6.30,-14.70,-30.75,26.1
2026/04/13 15:23:53.79,IMU,11.23,18.07,-1019.04,2.32,2.11,3.13,7.80,-15.00,-30.45,26.1
2026/04/13 15:23:53.89,IMU,8.30,31.74,-1014.16,1.17,-0.01,0.03,5.70,-15.00,-33.30,25.9
2026/04/13 15:23:54.01,IMU,-11.23,23.93,-1024.41,1.42,0.59,1.60,3.30,-16.35,-25.95,25.9
2026/04/13 15:23:54.11,IMU,-1.95,23.93,-1024.41,3.08,0.05,0.30,6.60,-16.35,-31.35,26.0
2026/04/13 15:23:54.21,IMU,0.00,27.83,-1011.72,2.37,-0.25,0.02,6.90,-16.80,-30.90,25.9
2026/04/13 15:23:54.31,IMU,-1.46,24.41,-1015.63,2.23,0.76,1.58,6.90,-15.15,-32.10,25.9
2026/04/13 15:23:54.41,IMU,-4.39,31.74,-1015.14,1.01,0.90,0.64,6.15,-14.85,-31.35,26.0
2026/04/13 15:23:54.51,IMU,4.39,18.55,-1023.44,1.06,1.07,1.92,5.85,-14.85,-31.65,25.9
2026/04/13 15:23:54.61,IMU,4.88,20.02,-1016.60,1.28,1.73,-0.05,6.30,-16.20,-31.50,26.0
2026/04/13 15:23:54.71,IMU,2.93,30.27,-1025.88,2.31,0.24,0.80,6.60,-15.60,-32.10,26.1
2026/04/13 15:23:54.81,IMU,-0.49,23.93,-1019.04,1.04,0.11,1.21,6.30,-15.75,-32.25,25.9
2026/04/13 15:23:54.91,IMU,5.86,19.04,-1027.34,0.71,-1.31,-1.43,7.05,-16.20,-31.20,25.9
2026/04/13 15:23:55.01,IMU,10.74,33.69,-1010.74,0.63,1.71,1.75,6.30,-15.45,-32.55,26.0
2026/04/13 15:23:55.11,IMU,2.44,33.69,-1009.28,1.82,1.91,-0.31,7.05,-13.50,-31.20,26.1
2026/04/13 15:23:55.21,IMU,10.25,39.55,-1006.84,0.31,2.88,0.69,6.60,-14.10,-31.35,26.1
2026/04/13 15:23:55.31,IMU,2.93,23.93,-1022.95,1.50,2.62,0.62,4.95,-15.45,-32.25,25.9
2026/04/13 15:23:55.41,IMU,-1.46,26.37,-1018.07,2.67,-0.84,-0.44,5.85,-15.60,-32.10,26.1
2026/04/13 15:23:55.51,IMU,-0.49,22.95,-1013.18,0.67,-0.58,2.39,7.05,-15.00,-31.80,25.7
2026/04/13 15:23:55.61,IMU,5.37,30.76,-1014.65,1.76,1.98,-0.76,5.40,-14.40,-32.70,26.0
2026/04/13 15:23:55.71,IMU,-5.37,17.09,-1021.97,2.58,0.21,-0.08,5.85,-13.65,-32.40,25.9
2026/04/13 15:23:55.81,IMU,-1.46,11.23,-1018.55,1.22,1.89,-0.56,6.90,-16.35,-31.35,25.9
2026/04/13 15:23:55.91,IMU,5.37,23.44,-1011.23,2.33,3.44,0.24,5.85,-14.85,-30.30,25.9
2026/04/13 15:23:56.01,IMU,-5.37,18.55,-1008.79,2.01,0.19,1.23,5.85,-15.90,-32.10,26.1
2026/04/13 15:23:56.11,IMU,1.95,39.55,-1004.39,0.32,3.27,1.21,6.75,-15.45,-32.25,26.0
2026/04/13 15:23:56.21,IMU,8.30,34.18,-1006.35,1.86,-0.05,3.08,7.80,-15.45,-31.50,25.8
2026/04/13 15:23:56.31,IMU,-9.77,32.71,-1009.77,0.07,2.82,-0.69,7.35,-14.85,-32.10,25.8
2026/04/13 15:23:56.41,IMU,-1.46,33.69,-1021.97,1.87,-0.73,0.63,5.70,-15.45,-32.25,26.0
2026/04/13 15:23:56.51,IMU,-4.39,26.37,-1008.79,1.95,2.76,-1.62,6.60,-16.80,-32.10,25.9
2026/04/13 15:23:56.61,IMU,-4.39,24.90,-1026.37,1.70,1.30,2.34,6.75,-16.50,-31.80,26.1
2026/04/13 15:23:56.71,IMU,3.91,29.79,-1006.35,1.48,0.85,0.45,4.65,-17.10,-31.65,25.8
2026/04/13 15:23:56.81,IMU,2.44,28.32,-1021.48,0.44,0.80,1.24,6.15,-15.15,-31.35,26.1
2026/04/13 15:23:56.91,IMU,12.21,30.27,-1021.48,0.31,2.27,0.47,6.90,-15.15,-33.15,25.8
2026/04/13 15:23:57.01,IMU,0.00,8.79,-1008.30,2.66,2.91,1.00,6.75,-15.00,-31.20,26.1
2026/04/13 15:23:57.11,IMU,0.49,26.86,-1017.09,1.16,-0.03,1.05,5.70,-15.00,-32.25,25.9
2026/04/13 15:23:57.21,IMU,11.23,24.41,-1007.81,0.98,0.26,0.57,6.15,-16.35,-31.35,26.1
2026/04/13 15:23:57.31,IMU,3.42,17.58,-1026.86,1.87,-0.40,0.80,6.15,-14.40,-31.65,26.2
2026/04/13 15:23:57.41,IMU,-15.14,28.32,-1016.11,0.74,-0.81,-0.75,7.05,-15.75,-32.55,25.9
2026/04/13 15:23:57.51,IMU,-1.46,34.18,-1015.63,1.94,0.85,-1.24,6.60,-14.10,-33.15,25.8
2026/04/13 15:23:57.61,IMU,1.46,28.81,-1024.41,-0.88,0.94,-2.66,7.50,-15.00,-30.75,26.3
2026/04/13 15:23:57.71,IMU,9.28,36.13,-1025.88,1.42,0.39,1.16,6.15,-15.60,-31.65,26.0
2026/04/13 15:23:57.82,IMU,-1.46,25.39,-1021.48,0.34,2.65,1.39,5.40,-14.85,-31.35,26.1
2026/04/13 15:23:57.92,IMU,3.91,34.67,-1007.32,2.90,0.61,-0.76,6.00,-16.20,-31.80,26.1
2026/04/13 15:23:58.02,IMU,-11.23,20.51,-1020.02,2.39,3.53,0.34,5.40,-13.35,-33.15,26.0
2026/04/13 15:23:58.12,IMU,2.44,23.44,-1016.11,-0.32,0.92,0.63,5.25,-16.20,-31.80,26.3
2026/04/13 15:23:58.22,IMU,5.86,29.30,-1007.81,0.56,1.17,2.08,6.75,-15.75,-33.00,25.9
2026/04/13 15:23:58.32,IMU,14.65,23.93,-1021.48,-0.24,-0.54,1.44,6.60,-15.60,-31.65,26.3
2026/04/13 15:23:58.42,IMU,1.95,37.60,-1028.32,0.85,0.70,-0.62,6.90,-15.90,-32.10,25.9
2026/04/13 15:23:58.52,IMU,2.44,30.27,-1023.93,-0.86,3.11,2.46,6.90,-16.80,-32.10,26.1
2026/04/13 15:23:58.62,IMU,11.23,37.11,-1000.98,-0.22,0.90,2.04,5.10,-15.15,-32.40,25.9
2026/04/13 15:23:58.72,IMU,-5.86,39.55,-1016.11,1.56,1.56,-0.20,6.90,-15.60,-31.35,26.2
2026/04/13 15:23:58.82,IMU,1.46,18.07,-1024.41,2.27,1.61,0.30,6.00,-16.20,-31.50,25.9
2026/04/13 15:23:58.92,IMU,6.84,34.18,-1026.37,-0.31,1.93,0.46,6.30,-16.20,-32.25,26.1
2026/04/13 15:23:59.02,IMU,5.37,29.79,-1013.67,-0.15,0.66,-0.75,7.80,-15.75,-31.50,26.2
2026/04/13 15:23:59.12,IMU,10.25,26.37,-1013.67,1.43,0.50,1.40,5.25,-17.70,-28.65,25.9
2026/04/13 15:23:59.22,IMU,4.39,22.46,-1003.91,-0.11,1.25,1.40,6.60,-16.35,-32.10,25.9
2026/04/13 15:23:59.32,IMU,8.79,27.83,-1021.48,1.89,0.82,2.10,5.70,-16.50,-31.80,25.9
2026/04/13 15:23:59.42,IMU,5.86,15.63,-1020.02,1.03,1.08,-0.63,7.35,-15.15,-32.10,26.1
2026/04/13 15:23:59.52,IMU,-3.42,21.00,-1027.34,2.17,0.15,-2.39,6.15,-15.15,-32.40,25.9
2026/04/13 15:23:59.62,IMU,1.95,10.25,-1024.41,1.12,0.95,2.37,6.00,-13.50,-31.50,26.1
2026/04/13 15:23:59.72,IMU,3.42,25.39,-1019.53,1.90,0.25,0.70,8.25,-15.75,-31.80,26.0
2026/04/13 15:23:59.82,IMU,2.44,16.60,-1022.46,2.24,-0.93,0.97,6.60,-15.60,-30.60,26.2
2026/04/13 15:23:59.92,IMU,9.77,37.11,-1015.63,1.95,-0.35,-1.29,5.40,-15.90,-32.10,25.8
2026/04/13 15:24:00.02,IMU,10.74,26.37,-1023.93,2.06,2.49,0.96,6.30,-16.95,-30.75,25.9
2026/04/13 15:24:00.12,IMU,6.84,28.81,-1014.65,2.41,2.38,1.34,2.70,-19.65,-26.40,26.1
2026/04/13 15:24:00.22,IMU,-1.95,23.93,-1016.60,0.69,0.50,2.15,6.75,-16.20,-31.80,25.9
2026/04/13 15:24:00.32,IMU,8.30,30.76,-1012.70,2.24,0.66,-1.50,5.70,-16.50,-31.50,25.9
2026/04/13 15:24:00.42,IMU,-2.44,27.34,-1008.79,1.51,0.05,1.90,5.70,-16.20,-31.80,25.9
2026/04/13 15:24:00.52,IMU,9.77,16.11,-1007.32,1.75,-0.19,0.98,5.85,-16.35,-31.65,26.2
2026/04/13 15:24:00.62,IMU,-5.37,31.25,-1017.58,0.58,1.53,0.74,5.70,-15.45,-32.25,26.0
2026/04/13 15:24:00.72,IMU,2.44,28.32,-1016.11,1.02,1.66,0.24,6.30,-16.20,-31.50,26.1
2026/04/13 15:24:00.82,IMU,10.25,22.46,-1009.28,1.70,2.41,1.12,6.15,-14.85,-32.40,25.7
2026/04/13 15:24:00.92,IMU,2.44,35.64,-1011.23,-0.40,1.24,0.89,6.90,-15.60,-31.65,25.9
2026/04/13 15:24:01.02,IMU,6.84,30.76,-1016.60,0.36,-0.02,0.08,6.15,-16.35,-31.80,26.1
2026/04/13 15:24:01.14,IMU,15.63,25.39,-1013.18,0.24,1.02,-1.11,3.45,-17.70,-26.85,26.1
2026/04/13 15:24:01.24,IMU,3.42,41.02,-1024.90,2.37,3.39,1.55,7.50,-15.45,-32.25,25.9
2026/04/13 15:24:01.34,IMU,-4.39,24.41,-1010.25,1.87,1.25,-1.26,7.35,-14.85,-31.65,25.9
2026/04/13 15:24:01.44,IMU,-18.07,31.74,-1019.53,1.89,1.23,-0.40,6.00,-15.00,-30.75,25.9
2026/04/13 15:24:01.54,IMU,11.23,19.53,-1006.84,2.72,0.44,1.31,6.15,-16.35,-33.15,26.1
2026/04/13 15:24:01.64,IMU,6.35,16.11,-1019.04,1.00,0.49,0.57,5.25,-16.50,-33.00,25.9
2026/04/13 15:24:01.74,IMU,-2.44,13.18,-1020.51,0.38,-0.42,2.09,5.70,-17.25,-30.45,25.9
2026/04/13 15:24:01.84,IMU,1.46,16.60,-1012.21,1.26,1.54,0.90,6.15,-15.15,-30.60,26.0
2026/04/13 15:24:01.94,IMU,10.74,31.25,-1016.60,2.02,0.66,-1.41,6.60,-13.65,-31.65,26.1
2026/04/13 15:24:02.04,IMU,-5.86,29.30,-1022.46,1.66,1.02,-1.52,6.75,-14.70,-31.50,25.9
2026/04/13 15:24:02.14,IMU,-4.88,35.64,-1011.72,0.95,0.49,-0.76,5.85,-14.85,-32.10,26.0
2026/04/13 15:24:02.24,IMU,11.72,32.23,-1017.58,2.08,1.51,-0.86,6.90,-14.10,-31.35,25.7
2026/04/13 15:24:02.34,IMU,-2.93,30.76,-1012.70,-1.22,-0.50,-0.77,5.85,-15.15,-31.65,25.9
2026/04/13 15:24:02.44,IMU,-6.35,37.60,-1020.02,1.16,2.73,0.31,5.70,-15.45,-32.55,25.9
2026/04/13 15:24:02.54,IMU,1.46,41.02,-1016.11,2.96,2.04,-0.01,6.90,-14.85,-32.70,25.9
2026/04/13 15:24:02.64,IMU,4.39,40.04,-1012.21,0.89,-0.02,0.20,6.30,-15.00,-32.25,26.0
2026/04/13 15:24:02.74,IMU,2.44,22.95,-1005.86,0.26,1.18,-0.56,7.65,-16.35,-30.90,26.1
2026/04/13 15:24:02.84,IMU,9.77,15.14,-1023.44,1.01,0.05,-1.08,6.90,-14.40,-30.90,25.9
2026/04/13 15:24:02.94,IMU,7.81,29.30,-1015.14,1.31,0.88,-0.13,6.90,-14.85,-31.65,25.7
2026/04/13 15:24:03.04,IMU,-8.79,29.79,-1011.72,-0.51,-0.01,1.93,6.75,-15.00,-31.80,26.1
2026/04/13 15:24:03.14,IMU,1.46,19.04,-1012.70,2.13,-1.53,2.06,5.85,-15.15,-31.35,26.1
2026/04/13 15:24:03.24,IMU,-1.46,22.95,-1012.70,1.74,0.78,2.17,6.00,-15.75,-30.75,25.9
2026/04/13 15:24:03.34,IMU,4.88,22.95,-1014.65,1.27,0.91,2.06,7.65,-16.80,-32.10,25.9
2026/04/13 15:24:03.44,IMU,11.23,26.86,-1016.11,2.31,2.28,0.37,6.75,-15.45,-33.00,25.9
2026/04/13 15:24:03.54,IMU,-3.42,26.37,-1017.58,1.75,-0.98,0.43,5.10,-15.15,-30.00,26.1
2026/04/13 15:24:03.64,IMU,-3.42,24.90,-1017.09,2.28,0.69,0.73,6.15,-15.15,-32.40,26.1
2026/04/13 15:24:03.74,IMU,1.46,23.44,-1025.88,-0.60,-1.96,1.17,5.10,-14.85,-32.10,25.9
2026/04/13 15:24:03.84,IMU,2.93,24.90,-1015.63,-0.23,-0.91,0.44,5.10,-14.40,-32.70,26.2
2026/04/13 15:24:03.94,IMU,-12.21,20.51,-1025.39,1.79,0.34,-1.37,6.60,-15.15,-32.40,25.9
2026/04/13 15:24:04.04,IMU,1.95,22.46,-1027.83,2.30,-1.66,0.90,6.90,-15.90,-33.90,25.9
2026/04/13 15:24:04.14,IMU,21.00,27.34,-1008.30,0.87,0.37,1.04,5.85,-15.90,-32.10,25.9
2026/04/13 15:24:04.24,IMU,4.88,29.30,-1012.21,1.98,1.88,0.34,5.85,-15.60,-32.10,26.3
2026/04/13 15:24:04.34,IMU,-0.98,25.39,-1014.65,1.17,0.67,0.72,5.40,-15.90,-32.10,26.3
2026/04/13 15:24:04.44,IMU,8.30,15.63,-1012.70,1.46,0.00,-0.69,6.60,-14.85,-30.60,26.2
2026/04/13 15:24:04.54,IMU,-16.11,21.00,-1021.00,0.51,-0.15,0.43,7.35,-15.90,-31.65,26.1
2026/04/13 15:24:04.64,IMU,-5.86,27.83,-1022.46,0.85,1.19,-0.99,6.90,-16.35,-32.10,26.0
2026/04/13 15:24:04.74,IMU,-2.44,34.18,-1022.46,-0.47,-0.89,-0.71,6.60,-14.40,-31.65,26.1
2026/04/13 15:24:04.84,IMU,4.39,32.23,-1020.02,-0.58,1.47,2.41,6.15,-16.80,-32.70,26.0
2026/04/13 15:24:04.94,IMU,9.28,30.27,-1020.51,1.09,1.24,-0.28,7.35,-15.60,-32.70,25.9
2026/04/13 15:24:05.04,IMU,11.72,21.48,-1016.11,1.05,2.78,-0.92,7.35,-14.85,-32.10,25.9
2026/04/13 15:24:05.14,IMU,-1.46,24.90,-1012.21,2.63,0.03,2.30,5.85,-14.85,-30.90,25.9
2026/04/13 15:24:05.25,IMU,5.86,24.90,-1009.77,0.28,0.66,0.24,5.70,-15.75,-29.70,25.9
2026/04/13 15:24:05.35,IMU,3.91,28.81,-1013.67,1.69,1.24,-0.25,7.35,-17.10,-31.35,26.1
2026/04/13 15:24:05.45,IMU,1.46,21.00,-1011.23,1.59,-0.40,-0.36,6.90,-14.40,-30.75,26.1
2026/04/13 15:24:05.55,IMU,-4.39,26.37,-1009.77,0.10,0.34,0.60,7.05,-15.75,-31.50,26.2
2026/04/13 15:24:05.65,IMU,8.79,20.02,-1006.84,0.33,2.08,3.04,5.70,-15.45,-32.25,26.1
2026/04/13 15:24:05.75,IMU,7.32,31.74,-1024.41,1.68,2.79,-0.23,7.65,-16.35,-32.40,25.9
2026/04/13 15:24:05.85,IMU,-7.32,19.04,-1018.07,0.55,-0.40,0.63,5.85,-15.15,-31.35,25.9
2026/04/13 15:24:05.95,IMU,-2.44,31.25,-1022.95,1.12,2.39,2.37,6.90,-16.35,-32.40,25.9
2026/04/13 15:24:06.05,IMU,-10.74,30.76,-1014.16,1.89,-0.09,1.82,7.50,-15.75,-31.20,26.1
2026/04/13 15:24:06.15,IMU,3.42,38.57,-1010.25,2.37,1.00,1.20,5.85,-16.80,-31.35,25.9
2026/04/13 15:24:06.25,IMU,-2.44,36.13,-1026.86,-0.18,0.73,-0.35,3.90,-17.55,-27.75,25.9
2026/04/13 15:24:06.35,IMU,5.37,8.30,-1025.39,1.66,1.07,-1.66,5.25,-15.75,-31.20,26.0
2026/04/13 15:24:06.45,IMU,4.88,20.02,-1018.07,1.37,0.66,0.50,5.25,-15.45,-31.80,26.1
2026/04/13 15:24:06.55,IMU,-3.91,25.88,-1017.09,0.38,2.26,0.80,5.10,-14.85,-32.10,25.9
2026/04/13 15:24:06.65,IMU,11.23,26.37,-1019.04,-0.65,1.29,-1.00,7.35,-15.90,-30.30,25.9
2026/04/13 15:24:06.75,IMU,-1.46,27.34,-1015.63,0.06,0.57,1.01,6.75,-16.95,-32.55,26.0
2026/04/13 15:24:06.85,IMU,0.00,26.86,-1005.37,2.32,1.60,0.92,6.00,-15.45,-31.80,25.9
2026/04/13 15:24:06.95,IMU,10.74,24.90,-1011.23,1.40,4.81,1.45,7.35,-15.60,-30.90,25.7
2026/04/13 15:24:07.05,IMU,4.88,29.79,-1018.07,0.39,0.32,-0.27,7.05,-15.45,-31.20,25.9
2026/04/13 15:24:07.15,IMU,6.84,30.27,-1001.95,1.47,1.69,0.22,6.30,-16.50,-32.25,26.1
2026/04/13 15:24:07.25,IMU,-0.98,11.72,-1027.83,0.53,1.58,-0.41,4.20,-19.65,-28.65,25.9
2026/04/13 15:24:07.35,IMU,15.14,26.86,-1003.42,1.30,2.06,0.90,4.65,-15.90,-30.90,25.9
2026/04/13 15:24:07.45,IMU,-4.39,29.79,-1027.83,2.31,2.21,-2.98,7.65,-14.85,-31.35,26.0
2026/04/13 15:24:07.55,IMU,-5.86,29.30,-1021.97,2.23,0.11,-1.15,6.90,-15.60,-31.35,26.0
2026/04/13 15:24:07.65,IMU,4.88,26.37,-1013.18,0.89,3.69,1.59,7.35,-15.90,-31.35,25.9
2026/04/13 15:24:07.75,IMU,1.95,19.04,-1024.90,0.76,1.33,0.04,5.85,-15.15,-31.65,26.0
2026/04/13 15:24:07.85,IMU,12.21,33.20,-1015.14,0.50,-0.75,-0.50,6.15,-15.90,-32.10,25.9
2026/04/13 15:24:07.95,IMU,2.93,32.23,-1023.44,-0.47,-0.13,0.29,5.85,-14.85,-31.35,26.3
2026/04/13 15:24:08.05,IMU,3.42,29.79,-1014.65,2.29,4.03,0.40,8.25,-16.20,-31.80,25.7
2026/04/13 15:24:08.15,IMU,-5.37,27.34,-1017.09,-1.03,0.53,-1.09,6.15,-15.90,-30.90,26.3
2026/04/13 15:24:08.25,IMU,21.00,37.60,-1006.84,1.45,-0.47,0.09,5.85,-15.90,-31.65,25.9
2026/04/13 15:24:08.35,IMU,-6.84,28.81,-1017.58,1.51,1.16,1.34,7.05,-15.00,-31.20,26.1
2026/04/13 15:24:08.45,IMU,2.93,30.76,-1023.93,2.27,-1.59,-0.39,5.10,-16.80,-33.15,25.9
2026/04/13 15:24:08.55,IMU,-9.77,25.39,-1015.14,2.39,0.70,1.63,6.60,-15.15,-30.60,26.0
2026/04/13 15:24:08.65,IMU,-2.44,20.02,-1018.55,3.79,-0.76,0.28,6.30,-15.00,-32.55,26.1
2026/04/13 15:24:08.75,IMU,13.18,23.93,-1002.93,0.16,3.16,-1.43,6.90,-15.90,-29.85,26.1
2026/04/13 15:24:08.85,IMU,-2.93,1.46,-1018.55,1.85,2.33,2.08,6.90,-14.85,-30.30,26.1
2026/04/13 15:24:08.95,IMU,-12.21,30.27,-1013.67,1.35,2.55,2.28,6.00,-15.00,-32.25,26.1
2026/04/13 15:24:09.05,IMU,4.39,31.25,-1014.65,1.74,1.47,0.80,6.75,-13.80,-30.45,26.1
2026/04/13 15:24:09.15,IMU,4.39,19.04,-1023.93,0.89,0.12,-0.18,6.90,-15.60,-30.90,26.0
2026/04/13 15:24:09.25,IMU,8.30,34.18,-1007.32,-0.53,1.27,-2.25,6.75,-16.50,-31.20,26.1
2026/04/13 15:24:09.35,IMU,-5.37,32.23,-1021.97,1.32,2.05,-1.61,5.40,-15.15,-32.10,25.8
2026/04/13 15:24:09.46,IMU,4.88,23.93,-1012.70,0.08,1.79,0.47,6.15,-15.90,-31.65,25.9
2026/04/13 15:24:09.56,IMU,-8.79,24.41,-1006.84,2.82,0.12,0.04,5.70,-15.00,-30.75,26.1
2026/04/13 15:24:09.66,IMU,-13.18,30.27,-1019.53,2.71,-0.35,-1.54,6.30,-15.45,-31.20,26.3
2026/04/13 15:24:09.76,IMU,5.86,30.76,-1026.86,-0.21,0.04,-1.32,6.60,-14.85,-30.30,25.7
2026/04/13 15:24:09.86,IMU,-0.98,29.79,-1008.79,0.85,0.34,-0.36,5.25,-16.20,-32.25,25.9
2026/04/13 15:24:09.96,IMU,0.00,32.23,-1013.67,2.58,2.28,-0.04,5.85,-15.90,-32.70,25.9
2026/04/13 15:24:10.06,IMU,2.44,29.30,-1019.53,2.90,2.00,1.99,7.65,-15.15,-31.35,26.2
2026/04/13 15:24:10.16,IMU,-12.21,18.07,-1008.30,0.60,-0.60,-0.10,8.40,-15.90,-32.10,25.9
2026/04/13 15:24:10.26,IMU,-5.37,39.55,-1006.35,1.70,0.79,1.92,6.60,-16.80,-33.45,25.9
2026/04/13 15:24:10.36,IMU,-9.77,24.90,-1024.41,0.63,0.60,1.73,6.00,-14.70,-31.20,26.2
2026/04/13 15:24:10.46,IMU,6.84,40.53,-1023.44,0.48,0.21,0.91,7.05,-15.00,-31.20,26.0
2026/04/13 15:24:10.56,IMU,2.93,27.83,-1024.41,0.69,3.21,0.87,7.05,-15.75,-31.20,26.1
2026/04/13 15:24:10.66,IMU,-0.98,35.64,-1021.00,-0.68,0.62,-0.40,6.30,-15.45,-31.20,25.8
2026/04/13 15:24:10.76,IMU,-0.49,22.46,-1012.70,0.52,0.44,-0.46,5.40,-15.15,-31.65,25.9
2026/04/13 15:24:10.86,IMU,-1.95,32.23,-1013.67,3.57,2.17,-0.01,5.25,-15.00,-31.20,26.1
2026/04/13 15:24:10.96,IMU,5.37,30.76,-1022.46,-0.51,2.82,0.48,5.85,-15.90,-30.60,25.9
2026/04/13 15:24:11.06,IMU,-1.46,25.88,-1018.07,0.71,2.71,-0.49,6.60,-14.85,-31.65,25.9
2026/04/13 15:24:11.16,IMU,0.49,29.30,-1018.07,-0.71,1.44,0.76,6.30,-15.00,-31.50,25.9
2026/04/13 15:24:11.26,IMU,3.42,23.44,-1007.81,0.25,1.69,-0.62,6.60,-15.15,-31.35,26.1
2026/04/13 15:24:11.36,IMU,-1.95,21.97,-1016.60,0.14,-0.16,1.35,6.30,-15.45,-31.80,25.9
2026/04/13 15:24:11.46,IMU,8.30,20.02,-1012.21,2.11,2.73,2.01,6.15,-16.35,-30.90,25.9
2026/04/13 15:24:11.56,IMU,4.39,30.76,-1017.09,-1.58,0.01,0.44,6.00,-16.20,-32.25,26.0
2026/04/13 15:24:11.66,IMU,-0.49,25.39,-1009.77,2.51,0.98,-0.31,7.80,-15.45,-31.50,26.3
2026/04/13 15:24:11.76,IMU,-3.91,29.30,-1023.44,-0.27,0.18,0.60,4.65,-15.60,-31.35,25.9
2026/04/13 15:24:11.86,IMU,12.70,31.74,-1026.37,1.94,0.30,0.16,6.75,-15.45,-30.75,26.0
2026/04/13 15:24:11.96,IMU,1.46,25.88,-1006.35,1.69,1.20,-0.19,6.15,-16.80,-31.65,26.0
2026/04/13 15:24:12.06,IMU,-1.95,23.93,-1020.02,1.27,0.08,1.62,5.70,-16.20,-33.30,25.9
2026/04/13 15:24:12.16,IMU,3.42,14.65,-1007.81,0.27,-0.84,0.11,7.35,-16.35,-33.15,26.2
2026/04/13 15:24:12.26,IMU,7.32,22.46,-1018.55,0.70,-0.22,-0.95,6.90,-14.85,-31.35,25.8
2026/04/13 15:24:12.36,IMU,3.42,37.60,-1023.44,1.63,2.02,0.11,6.90,-14.85,-30.90,26.2
2026/04/13 15:24:12.46,IMU,-7.81,32.23,-1018.55,0.40,-0.63,-2.69,6.75,-16.20,-31.20,26.0
2026/04/13 15:24:12.56,IMU,10.74,22.46,-1003.91,1.32,0.44,0.16,6.90,-14.85,-31.65,26.2
2026/04/13 15:24:12.66,IMU,-4.39,22.95,-1013.18,0.04,0.76,-0.09,6.15,-15.60,-30.90,25.8
2026/04/13 15:24:12.76,IMU,4.39,28.32,-1003.91,-0.37,1.26,1.81,5.85,-17.10,-30.90,26.2
2026/04/13 15:24:12.86,IMU,-1.95,25.88,-1018.07,1.73,0.73,1.28,7.05,-16.50,-31.50,26.1
2026/04/13 15:24:12.96,IMU,-12.70,27.34,-1023.93,0.95,-1.41,0.20,5.70,-16.20,-31.80,26.1
2026/04/13 15:24:13.06,IMU,12.21,21.48,-1016.60,-0.49,1.14,1.11,6.60,-16.80,-32.10,25.8
2026/04/13 15:24:13.16,IMU,-1.95,33.20,-1021.48,0.11,-0.94,-0.06,6.75,-16.20,-30.45,26.3
2026/04/13 15:24:13.26,IMU,5.37,24.41,-1010.74,1.82,0.21,0.80,5.85,-16.35,-30.90,26.1
2026/04/13 15:24:13.37,IMU,-3.42,31.25,-1007.32,0.69,0.14,-1.41,1.05,-18.60,-27.30,26.0
2026/04/13 15:24:13.47,IMU,4.88,22.95,-1014.65,1.65,0.22,1.82,5.70,-14.70,-30.75,26.1
2026/04/13 15:24:13.57,IMU,10.74,25.88,-1011.23,2.27,0.27,0.83,6.00,-15.45,-32.25,25.8
2026/04/13 15:24:13.67,IMU,4.88,25.39,-1021.00,1.10,0.43,2.82,7.80,-15.45,-32.55,25.9
2026/04/13 15:24:13.77,IMU,2.93,18.55,-1015.63,1.72,-0.45,-0.69,6.00,-15.75,-31.20,25.9
2026/04/13 15:24:13.87,IMU,0.98,31.74,-1026.86,2.10,0.75,1.66,6.30,-15.75,-31.80,26.1
2026/04/13 15:24:13.97,IMU,-16.60,24.90,-1006.35,2.38,0.27,-0.35,5.10,-15.15,-32.10,25.9
2026/04/13 15:24:14.07,IMU,5.86,28.32,-1010.74,1.62,-0.02,2.41,5.70,-13.50,-31.50,26.3
2026/04/13 15:24:14.17,IMU,-7.32,17.58,-1020.51,2.34,0.09,-0.29,6.90,-14.40,-34.20,26.2
2026/04/13 15:24:14.27,IMU,7.32,27.83,-1020.02,-0.65,1.35,1.51,5.40,-14.85,-31.65,25.7
2026/04/13 15:24:14.37,IMU,-7.32,20.51,-1018.07,1.90,1.78,2.42,7.50,-14.70,-31.20,25.9
2026/04/13 15:24:14.47,IMU,13.18,30.76,-1027.83,1.27,-0.40,-1.02,5.10,-14.40,-32.70,26.1
2026/04/13 15:24:14.57,IMU,-2.93,25.88,-1009.77,1.19,-0.56,-1.28,7.35,-12.60,-31.65,26.0
2026/04/13 15:24:14.67,IMU,8.30,30.76,-1009.77,0.72,4.00,0.58,6.75,-15.00,-32.55,25.9
2026/04/13 15:24:14.77,IMU,0.98,30.27,-1007.32,2.57,0.24,0.56,6.30,-13.05,-32.25,26.0
2026/04/13 15:24:14.87,IMU,4.39,17.09,-1020.51,-0.04,0.22,-0.40,6.90,-13.35,-32.40,25.9
2026/04/13 15:24:14.97,IMU,5.86,24.90,-998.05,0.05,1.37,0.08,4.95,-14.70,-31.50,26.1
2026/04/13 15:24:15.07,IMU,5.37,28.32,-1017.09,4.11,0.80,1.15,5.70,-14.25,-32.25,25.9
2026/04/13 15:24:15.17,IMU,4.39,23.93,-1016.60,0.57,0.55,1.99,6.75,-13.80,-31.50,25.9
2026/04/13 15:24:15.27,IMU,6.35,19.53,-1010.74,1.73,-0.16,1.49,6.90,-14.40,-30.30,26.1
2026/04/13 15:24:15.37,IMU,9.28,38.09,-1009.77,0.95,2.85,1.80,7.05,-17.25,-31.20,26.0
2026/04/13 15:24:15.47,IMU,8.30,24.41,-1023.44,1.73,2.98,-2.13,6.60,-14.40,-31.65,25.9
2026/04/13 15:24:15.57,IMU,-9.77,18.55,-1015.63,2.49,1.24,0.25,6.30,-15.75,-31.50,25.9
2026/04/13 15:24:15.67,IMU,-1.46,39.55,-1010.25,0.48,0.05,1.62,6.30,-15.45,-32.25,26.1
2026/04/13 15:24:15.77,IMU,-2.44,24.41,-1019.04,3.02,1.34,3.07,5.70,-16.20,-31.80,26.1
2026/04/13 15:24:15.87,IMU,0.98,29.30,-1014.16,2.19,2.18,-0.22,5.40,-15.90,-31.65,26.1
2026/04/13 15:24:15.97,IMU,-7.32,24.90,-1016.11,0.31,1.49,-0.31,6.30,-13.80,-30.75,25.9
2026/04/13 15:24:16.07,IMU,-3.42,34.18,-1025.39,0.63,0.58,0.24,6.75,-15.75,-31.50,25.9
2026/04/13 15:24:16.17,IMU,0.00,32.23,-1023.44,1.36,0.44,-1.05,6.90,-14.40,-29.85,26.1
2026/04/13 15:24:16.27,IMU,13.18,25.39,-1025.88,-0.18,2.79,-0.12,6.75,-15.45,-32.25,25.9
2026/04/13 15:24:16.37,IMU,7.32,28.32,-1025.39,1.70,1.22,1.15,7.95,-14.40,-32.40,25.7
2026/04/13 15:24:16.47,IMU,-1.95,23.44,-1011.72,2.40,0.43,0.55,7.65,-17.10,-31.65,25.9
2026/04/13 15:24:16.57,IMU,0.00,23.44,-1007.81,1.27,1.02,2.68,6.90,-15.60,-32.70,26.1
2026/04/13 15:24:16.67,IMU,-1.46,35.16,-1018.07,0.30,2.60,0.44,6.60,-15.15,-32.70,26.1
2026/04/13 15:24:16.77,IMU,-3.42,27.34,-1015.14,0.18,1.00,-2.44,7.65,-14.85,-31.65,25.9
2026/04/13 15:24:16.87,IMU,1.46,33.20,-1020.51,3.40,0.15,-0.81,6.90,-14.85,-32.70,26.3
2026/04/13 15:24:16.97,IMU,-1.95,22.95,-1003.91,0.68,1.12,-1.07,7.50,-15.75,-33.00,25.9
2026/04/13 15:24:17.07,IMU,-4.88,28.32,-1034.18,1.52,0.49,-0.73,8.25,-12.75,-32.25,25.9
2026/04/13 15:24:17.17,IMU,3.91,24.41,-1021.97,2.18,1.18,-1.77,7.35,-14.85,-32.40,25.6
2026/04/13 15:24:17.27,IMU,-5.86,21.97,-1005.86,0.40,2.92,-0.12,6.90,-15.15,-31.65,26.0
2026/04/13 15:24:17.37,IMU,5.37,33.20,-1011.23,2.89,2.10,-2.23,6.90,-14.85,-31.65,26.1
2026/04/13 15:24:17.47,IMU,-11.23,21.48,-1027.83,0.56,1.15,1.08,7.50,-15.75,-31.50,26.1
2026/04/13 15:24:17.57,IMU,3.42,33.69,-1014.65,1.67,-0.07,0.62,7.65,-14.85,-32.70,26.0
2026/04/13 15:24:17.67,IMU,9.77,14.65,-1016.11,1.49,2.85,0.55,7.35,-15.15,-30.60,26.1
2026/04/13 15:24:17.78,IMU,2.93,31.25,-1027.34,1.69,0.66,-0.16,5.40,-14.85,-31.35,26.1
2026/04/13 15:24:17.88,IMU,-11.72,22.95,-1005.86,1.22,1.40,-2.02,7.05,-15.45,-31.20,26.2
2026/04/13 15:24:17.98,IMU,12.70,31.25,-1011.72,1.94,4.76,1.79,6.60,-12.90,-30.90,26.1
2026/04/13 15:24:18.08,IMU,6.84,24.90,-1021.97,0.10,-0.51,-1.18,7.05,-13.50,-30.45,25.9
2026/04/13 15:24:18.18,IMU,14.16,35.64,-1008.79,0.92,3.06,0.01,7.95,-15.15,-32.10,26.1
2026/04/13 15:24:18.28,IMU,7.32,30.76,-1014.65,1.93,2.04,0.21,6.90,-14.40,-31.65,26.1
2026/04/13 15:24:18.38,IMU,2.93,29.30,-1021.00,2.90,1.34,-0.79,6.75,-14.25,-31.50,25.9
2026/04/13 15:24:18.48,IMU,3.91,24.90,-1022.46,0.66,1.21,2.47,5.70,-15.45,-31.80,26.0
2026/04/13 15:24:18.58,IMU,6.84,18.07,-1016.11,1.62,0.92,0.76,7.35,-15.60,-31.65,26.1
2026/04/13 15:24:18.68,IMU,-8.79,23.44,-1019.53,0.05,1.21,-3.61,6.30,-14.70,-30.75,25.9
2026/04/13 15:24:18.78,IMU,-2.44,37.11,-1010.74,1.13,0.70,0.28,6.15,-14.85,-31.65,25.7
2026/04/13 15:24:18.88,IMU,0.49,38.09,-1012.21,1.24,1.86,0.47,7.50,-14.70,-33.00,26.1
2026/04/13 15:24:18.98,IMU,13.67,27.34,-1004.39,2.36,-0.72,2.89,9.15,-15.15,-31.65,26.2
2026/04/13 15:24:19.08,IMU,2.93,33.69,-1004.39,-0.13,-0.69,-1.08,6.15,-15.15,-30.90,25.9
2026/04/13 15:24:19.18,IMU,3.42,25.39,-1014.16,1.01,-0.36,1.71,7.05,-15.00,-31.50,25.8
2026/04/13 15:24:19.28,IMU,-1.95,29.30,-1010.25,1.73,2.40,-0.74,7.35,-16.35,-32.10,26.1
2026/04/13 15:24:19.38,IMU,-7.32,38.09,-1024.41,2.40,1.30,-0.60,7.95,-14.85,-31.65,26.0
2026/04/13 15:24:19.48,IMU,9.77,26.37,-1021.97,3.70,1.60,1.92,3.30,-17.55,-26.70,25.8
2026/04/13 15:24:19.58,IMU,8.79,11.72,-1013.67,0.89,0.84,-1.34,6.30,-15.45,-31.20,26.1
2026/04/13 15:24:19.68,IMU,11.23,11.23,-1022.95,1.09,0.89,-0.47,6.00,-15.00,-32.25,26.3
2026/04/13 15:24:19.78,IMU,-5.86,27.83,-1015.63,0.20,-0.36,0.36,7.05,-15.45,-31.80,25.9
2026/04/13 15:24:19.88,IMU,8.79,33.20,-1027.83,1.98,1.59,-0.85,6.30,-15.45,-32.55,25.9
2026/04/13 15:24:19.98,IMU,8.79,13.67,-1007.32,0.23,1.55,-0.98,6.90,-15.90,-32.40,26.3
2026/04/13 15:24:20.08,IMU,-0.98,28.32,-1008.79,1.02,1.15,1.73,7.50,-15.75,-32.25,26.1
2026/04/13 15:24:20.18,IMU,15.14,39.06,-1021.97,1.15,1.50,0.38,7.35,-15.15,-33.90,26.1
2026/04/13 15:24:20.28,IMU,-10.25,24.41,-1003.91,-0.59,1.71,-2.50,6.75,-16.20,-31.20,26.2
2026/04/13 15:24:20.38,IMU,5.37,23.93,-1021.00,-0.20,1.44,2.15,6.00,-17.70,-31.20,25.9
2026/04/13 15:24:20.49,IMU,6.84,31.25,-1022.95,1.19,1.24,-1.07,3.00,-18.00,-27.60,26.3
2026/04/13 15:24:20.59,IMU,-0.49,28.81,-1006.84,1.90,2.80,-0.55,7.50,-15.75,-32.55,26.0
2026/04/13 15:24:20.69,IMU,0.49,28.81,-1018.07,1.70,1.82,-2.40,6.60,-15.60,-31.35,26.0
2026/04/13 15:24:20.79,IMU,-6.84,21.00,-1020.02,3.72,-0.43,0.57,7.05,-15.00,-30.45,25.9
2026/04/13 15:24:20.89,IMU,0.49,34.67,-1009.77,1.53,1.98,0.27,8.55,-16.20,-31.80,26.1
2026/04/13 15:24:20.99,IMU,5.86,32.71,-1016.11,1.05,0.18,-0.32,7.80,-15.75,-31.80,26.1
2026/04/13 15:24:21.09,IMU,-9.77,41.99,-1006.84,0.98,1.25,1.62,7.80,-16.20,-31.80,26.1
2026/04/13 15:24:21.19,IMU,18.55,21.00,-1009.28,2.20,3.47,0.71,7.05,-15.00,-31.80,25.7
2026/04/13 15:24:21.29,IMU,0.98,35.16,-1015.63,0.30,0.56,0.69,6.90,-15.15,-30.90,26.1
2026/04/13 15:24:21.40,IMU,2.93,28.81,-1019.53,0.13,-0.08,1.71,7.95,-15.60,-32.70,26.1
2026/04/13 15:24:21.50,IMU,3.91,21.48,-1016.60,0.24,-0.47,-1.10,6.90,-14.40,-32.40,25.9
2026/04/13 15:24:21.60,IMU,7.32,34.18,-1004.39,1.93,2.24,1.39,6.75,-15.45,-30.75,26.1
2026/04/13 15:24:21.70,IMU,3.91,24.41,-1020.51,1.09,-0.99,-1.57,6.30,-15.75,-31.20,26.1
2026/04/13 15:24:21.80,IMU,6.84,30.27,-1021.48,1.47,1.73,1.85,6.75,-16.95,-31.80,26.2
2026/04/13 15:24:21.90,IMU,-9.77,33.20,-1018.07,0.86,-1.10,1.50,7.05,-14.70,-31.50,26.1
2026/04/13 15:24:22.00,IMU,-6.84,21.97,-1016.11,0.76,1.59,-1.12,7.80,-16.20,-31.20,26.1
2026/04/13 15:24:22.10,IMU,6.84,26.37,-1011.23,-0.02,0.38,1.82,7.50,-15.00,-33.00,26.0
2026/04/13 15:24:22.20,IMU,8.79,30.76,-1015.14,1.07,0.57,-0.14,6.90,-16.35,-32.40,26.0
2026/04/13 15:24:22.30,IMU,3.42,18.07,-1020.02,2.40,1.55,-0.07,6.00,-15.75,-31.20,26.2
2026/04/13 15:24:22.40,IMU,-0.49,25.39,-1017.09,2.12,1.75,-0.98,7.80,-14.70,-33.00,25.7
2026/04/13 15:24:22.50,IMU,1.95,26.86,-1017.58,0.94,2.69,0.84,6.15,-15.15,-29.85,26.2
2026/04/13 15:24:22.60,IMU,4.88,37.11,-1011.23,1.96,-0.61,1.96,6.60,-15.15,-31.65,25.9
2026/04/13 15:24:22.70,IMU,-5.86,29.30,-1021.97,1.91,0.50,1.44,6.15,-15.60,-32.10,25.9
2026/04/13 15:24:22.80,IMU,0.98,30.27,-1021.00,2.23,2.94,1.74,7.50,-13.80,-32.25,25.8
2026/04/13 15:24:22.90,IMU,-19.04,30.27,-1015.63,0.18,0.34,-1.01,6.60,-16.35,-31.35,26.2
2026/04/13 15:24:23.00,IMU,3.91,27.83,-1024.90,1.18,1.45,2.68,7.35,-15.15,-32.40,26.3
2026/04/13 15:24:23.10,IMU,6.35,34.18,-1018.55,2.06,0.75,-1.40,7.65,-15.90,-32.70,26.1
2026/04/13 15:24:23.20,IMU,-0.98,26.86,-1016.60,1.38,1.73,0.37,8.55,-15.75,-34.05,26.1
2026/04/13 15:24:23.30,IMU,-4.39,21.48,-1020.02,2.29,3.31,0.96,6.90,-16.35,-32.10,26.3
2026/04/13 15:24:23.40,IMU,-4.88,26.37,-1006.35,2.60,5.12,1.69,7.80,-13.50,-31.50,26.1
2026/04/13 15:24:23.50,IMU,-4.88,28.32,-1009.28,1.72,0.63,0.66,6.15,-15.15,-31.65,25.9
2026/04/13 15:24:23.60,IMU,5.86,20.51,-1017.09,1.18,2.44,-1.08,7.80,-15.00,-32.55,26.1
2026/04/13 15:24:23.70,IMU,13.67,32.71,-1014.16,1.47,0.21,0.27,7.05,-15.45,-33.00,26.1
2026/04/13 15:24:23.80,IMU,3.42,25.39,-1012.70,2.82,1.11,-0.18,6.60,-16.35,-32.40,26.1
2026/04/13 15:24:23.90,IMU,5.86,27.34,-1014.16,3.63,1.37,1.02,6.00,-16.20,-31.20,25.9
2026/04/13 15:24:24.00,IMU,13.67,30.76,-1019.53,1.68,-0.20,-2.03,8.55,-16.20,-31.80,26.3
2026/04/13 15:24:24.10,IMU,3.91,36.62,-1014.16,1.44,1.13,0.09,5.40,-15.15,-32.40,26.2
2026/04/13 15:24:24.20,IMU,4.88,32.71,-1025.39,0.89,1.73,0.20,7.05,-15.75,-32.55,26.1
2026/04/13 15:24:24.30,IMU,5.86,20.51,-1019.53,1.47,3.14,0.82,6.90,-15.90,-32.40,25.8
2026/04/13 15:24:24.40,IMU,6.35,30.27,-1016.60,1.44,1.48,2.84,6.30,-15.75,-30.75,26.1
2026/04/13 15:24:24.50,IMU,-0.49,30.76,-1019.53,1.27,2.96,0.60,5.25,-14.70,-29.70,25.9
2026/04/13 15:24:24.60,IMU,3.42,31.25,-1022.95,1.33,-2.12,0.86,7.05,-15.75,-30.75,26.1
2026/04/13 15:24:24.70,IMU,0.98,35.64,-1016.11,0.84,0.18,-2.60,7.05,-14.70,-32.25,26.3
2026/04/13 15:24:24.80,IMU,5.86,23.93,-1016.11,0.31,0.40,-0.78,7.65,-14.85,-31.65,26.1
